Time	Gx	Gy	Gz	Ax	Ay	Az
6373	5.80	-113.42	16.82	0.12	0.03	1.13
6392	11.66	-101.62	16.91	0.20	0.04	1.22
6409	16.01	-81.28	16.13	0.24	0.07	1.27
6427	18.43	-59.16	17.58	0.23	0.08	1.31
6446	21.87	-36.07	20.78	0.27	0.05	1.37
6463	24.55	-23.01	21.94	0.29	0.05	1.39
6482	27.79	6.32	25.41	0.33	0.11	1.44
6499	24.11	41.66	27.71	0.43	0.16	1.44
6516	20.46	63.67	26.63	0.46	0.15	1.44
6534	14.51	110.34	19.82	0.44	0.15	1.44
6553	9.92	151.87	10.71	0.39	0.14	1.42
6571	5.55	187.77	-1.34	0.37	0.14	1.43
6589	1.66	218.29	-15.11	0.30	0.13	1.47
6606	-0.02	230.10	-20.92	0.26	0.13	1.49
6625	-3.88	247.16	-30.72	0.21	0.14	1.53
6643	-8.18	257.60	-40.89	0.16	0.14	1.53
6663	-13.70	264.33	-50.66	0.14	0.14	1.47
6681	-18.91	273.30	-60.82	0.16	0.10	1.39
6699	-20.10	278.90	-66.18	0.09	0.07	1.34
6718	-19.56	285.37	-73.32	0.06	0.05	1.33
6736	-17.91	285.37	-73.68	-0.02	0.09	1.33
6756	-19.84	277.01	-68.98	-0.10	0.11	1.33
6775	-20.25	258.47	-61.23	-0.19	0.09	1.29
6794	-18.52	234.65	-51.01	-0.23	0.08	1.18
6813	-18.19	211.99	-38.80	-0.20	0.10	1.06
6831	-19.87	194.63	-26.25	-0.15	0.11	0.99
6851	-21.30	188.98	-19.50	-0.12	0.11	0.95
6870	-23.38	183.07	-6.61	-0.06	0.11	0.91
6888	-25.12	181.09	3.80	-0.04	0.12	0.87
6907	-25.39	178.79	12.44	-0.10	0.07	0.84
6925	-19.73	165.16	19.84	-0.22	0.04	0.82
6944	-11.28	137.04	26.84	-0.32	0.01	0.78
6963	-6.58	119.31	29.33	-0.37	0.02	0.74
6981	1.88	79.77	32.15	-0.38	0.03	0.73
7000	5.66	37.80	31.91	-0.39	0.08	0.72
7018	1.77	-8.27	30.62	-0.47	0.12	0.73
7037	-5.04	-65.17	29.95	-0.53	0.08	0.74
7055	-7.34	-95.60	28.79	-0.57	0.10	0.79
7074	-12.53	-160.43	26.35	-0.60	0.11	0.83
7094	-18.45	-231.61	27.37	-0.64	0.10	0.91
7112	-20.05	-302.84	33.69	-0.59	0.09	1.05
7131	-17.38	-367.80	43.82	-0.53	0.06	1.26
7150	-9.38	-423.92	56.08	-0.33	0.04	1.54
7169	6.90	-449.87	63.80	0.07	0.03	1.84
7187	16.39	-446.76	61.89	0.34	0.14	2.23
7205	28.52	-419.91	47.88	0.46	0.24	2.39
7223	23.30	-369.23	29.07	0.73	0.40	2.52
7240	5.81	-294.07	6.91	0.78	0.42	2.46
7259	-15.11	-225.81	-18.05	0.54	0.40	2.37
7278	-24.58	-204.04	-28.76	0.26	0.27	2.33
7297	-31.74	-186.77	-45.55	0.18	0.20	2.31
7316	-22.86	-190.96	-55.22	0.02	0.11	2.26
7335	-3.80	-214.19	-47.26	-0.12	0.06	2.19
7355	22.52	-242.87	-20.80	0.02	0.01	2.03
7373	46.22	-249.28	5.89	0.19	0.09	1.84
7392	54.58	-242.37	26.20	0.16	0.14	1.68
7410	54.66	-240.94	34.23	0.10	0.20	1.58
7428	48.46	-243.61	46.14	0.12	0.22	1.53
7446	35.86	-241.24	53.30	0.22	0.25	1.41
7464	20.42	-226.55	59.07	0.28	0.22	1.26
7483	5.91	-208.80	63.75	0.23	0.19	1.11
7501	0.18	-202.64	65.96	0.16	0.15	1.04
7519	-5.39	-203.25	68.36	0.01	0.07	0.89
7537	-5.46	-213.67	69.46	0.03	0.03	0.73
7555	-3.83	-216.00	70.21	0.11	0.05	0.61
7575	-4.43	-206.79	70.72	0.17	0.04	0.50
7593	-4.33	-199.57	70.25	0.14	0.02	0.40
7612	-3.57	-186.04	67.09	0.12	0.01	0.36
7630	-3.46	-175.92	61.29	0.09	0.01	0.27
7649	-4.91	-168.50	52.19	0.06	-0.01	0.20
7668	-5.89	-161.99	41.28	0.07	-0.02	0.13
7687	-8.01	-153.41	28.63	0.08	-0.01	0.07
7705	-9.80	-148.80	22.02	0.08	-0.00	0.01
7725	-13.28	-138.78	10.06	0.09	-0.01	-0.04
7744	-15.15	-127.44	2.70	0.09	-0.03	-0.06
7764	-13.02	-113.98	-1.31	0.10	-0.07	-0.10
7784	-7.48	-100.69	-5.74	0.09	-0.09	-0.14
7803	-2.37	-87.20	-11.69	0.10	-0.08	-0.18
7823	0.32	-71.06	-18.25	0.12	-0.09	-0.22
7842	2.72	-53.27	-24.12	0.12	-0.09	-0.25
7862	3.71	-34.47	-28.95	0.11	-0.08	-0.27
7882	3.80	-17.58	-32.07	0.08	-0.08	-0.27
7902	4.38	-4.36	-32.33	0.07	-0.08	-0.25
7921	5.33	9.22	-29.40	0.09	-0.07	-0.23
7939	5.11	24.49	-24.60	0.10	-0.06	-0.21
7959	4.29	32.14	-22.32	0.09	-0.06	-0.16
7977	3.16	45.55	-19.61	0.08	-0.07	-0.15
7997	2.40	57.42	-17.53	0.08	-0.06	-0.13
8015	0.75	69.82	-14.63	0.10	-0.05	-0.09
8035	-1.85	82.66	-13.21	0.10	-0.03	0.01
8053	-5.14	93.25	-14.07	0.10	-0.03	0.11
8072	-6.61	104.69	-16.83	0.14	-0.04	0.16
8092	-8.03	119.98	-20.03	0.18	0.01	0.23
8110	-10.44	128.91	-21.70	0.20	0.04	0.28
8129	-16.43	148.62	-25.01	0.23	0.02	0.38
8147	-18.80	170.30	-29.16	0.26	0.01	0.48
8165	-21.90	193.65	-34.97	0.30	0.07	0.58
8184	-26.21	220.44	-40.08	0.34	0.03	0.64
8202	-26.08	235.05	-42.22	0.33	0.01	0.73
8221	-22.28	262.01	-48.39	0.31	0.05	0.79
8239	-23.28	282.27	-56.95	0.23	0.09	0.86
8257	-25.31	291.52	-62.30	0.14	0.05	0.97
8276	-22.80	289.51	-63.69	0.07	0.09	1.09
8295	-26.95	280.62	-62.44	0.06	0.19	1.23
8314	-31.13	275.68	-60.36	0.07	0.15	1.40
8332	-35.17	265.69	-53.13	0.11	0.15	1.48
8351	-37.23	261.47	-45.33	0.11	0.23	1.65
8370	-44.72	251.62	-40.91	0.03	0.28	1.85
8388	-47.27	236.24	-30.33	0.13	0.21	2.07
8408	-42.95	235.84	-22.14	0.25	0.28	2.22
8426	-43.52	239.12	-22.63	0.19	0.33	2.33
8445	-47.81	233.38	-23.54	0.15	0.30	2.59
8463	-42.24	236.24	-18.04	0.41	0.23	2.70
8481	-35.29	262.41	-23.94	0.43	0.30	2.65
8501	-37.03	279.92	-40.77	0.24	0.27	2.75
8519	-29.97	282.06	-48.65	0.23	0.16	2.78
8538	-21.61	282.90	-47.85	0.22	0.21	2.70
8556	-7.32	285.28	-41.58	0.21	0.26	2.63
8574	-6.10	286.94	-39.12	0.16	0.34	2.49
8593	-14.69	287.61	-40.62	0.19	0.38	2.39
8612	-31.42	291.67	-39.41	0.19	0.39	2.26
8631	-39.84	294.40	-37.99	0.19	0.30	2.01
8649	-51.54	301.22	-32.78	0.23	0.22	1.84
8667	-51.74	316.93	-27.73	0.22	0.12	1.49
8686	-44.10	327.88	-21.48	0.03	0.05	1.24
8704	-31.71	313.39	-13.09	-0.25	0.02	1.10
8723	-18.69	268.36	-2.14	-0.47	0.02	1.01
8742	-7.06	206.16	9.48	-0.49	0.02	0.87
8760	-2.43	175.58	14.27	-0.45	0.03	0.80
8780	1.82	122.76	21.93	-0.35	0.08	0.70
8797	0.29	81.73	26.67	-0.28	0.06	0.62
8815	-0.76	47.12	25.83	-0.28	0.05	0.58
8834	-3.34	8.74	23.61	-0.39	0.05	0.59
8852	-4.35	-16.36	23.35	-0.48	0.04	0.61
8871	-4.59	-81.05	26.46	-0.61	0.01	0.66
8890	-1.16	-157.29	30.73	-0.61	-0.01	0.68
8909	3.22	-230.07	34.00	-0.67	0.02	0.76
8929	5.43	-313.35	41.63	-0.81	0.04	0.89
8947	7.10	-408.75	51.50	-0.70	0.08	1.04
8966	5.43	-482.51	60.82	-0.43	0.13	1.30
8984	4.15	-500.00	65.48	-0.27	0.14	1.49
9002	4.07	-499.65	75.20	0.17	0.18	2.00
9021	9.17	-497.44	78.02	0.76	0.16	2.44
9039	20.65	-417.21	55.73	1.11	0.19	2.72
9057	23.83	-311.00	19.94	1.10	0.35	2.81
9075	19.68	-261.80	5.16	0.97	0.41	2.80
9092	5.13	-190.03	-17.18	0.56	0.41	2.77
9112	-8.18	-175.28	-27.76	0.02	0.37	2.77
9130	-12.44	-215.74	-23.91	-0.27	0.26	2.67
9151	-0.38	-275.18	-12.88	-0.23	0.10	2.47
9170	20.58	-323.06	0.63	-0.13	0.11	2.26
9189	28.88	-340.96	8.94	-0.05	0.12	2.17
9207	41.02	-358.31	25.47	0.20	0.13	2.03
9225	48.23	-344.51	37.16	0.45	0.19	1.96
9243	45.49	-308.69	42.39	0.46	0.26	1.86
9261	37.54	-273.91	47.62	0.40	0.24	1.70
9280	34.09	-258.68	48.92	0.33	0.22	1.53
9297	27.34	-234.45	48.22	0.26	0.21	1.44
9315	19.82	-224.75	47.16	0.10	0.19	1.24
9334	13.20	-230.13	50.08	0.01	0.15	1.03
9352	9.35	-238.86	52.26	0.02	0.11	0.82
9371	7.61	-241.82	52.55	0.03	0.10	0.73
9388	4.52	-245.44	53.36	0.03	0.07	0.59
9406	2.73	-245.00	55.91	0.08	0.06	0.47
9425	1.92	-237.26	58.26	0.11	0.03	0.37
9443	2.50	-232.04	58.14	0.10	0.00	0.29
9462	4.58	-221.44	54.61	0.09	-0.01	0.25
9480	5.66	-211.49	48.57	0.09	0.00	0.18
9497	6.38	-199.22	41.76	0.12	-0.01	0.13
9516	7.35	-181.84	33.62	0.15	-0.02	0.06
9535	8.70	-161.07	25.71	0.13	-0.02	-0.01
9553	8.97	-151.05	22.25	0.13	-0.02	-0.02
9573	9.16	-131.00	15.66	0.13	-0.04	-0.07
9591	10.33	-110.43	8.93	0.10	-0.06	-0.14
9611	12.02	-93.61	3.01	0.06	-0.06	-0.19
9630	13.09	-79.19	-2.01	0.06	-0.07	-0.25
9649	13.32	-62.68	-6.45	0.07	-0.08	-0.31
9669	13.29	-45.78	-8.04	0.05	-0.09	-0.35
9688	11.90	-31.19	-7.68	0.03	-0.09	-0.38
9707	10.74	-25.12	-7.20	0.02	-0.09	-0.41
9727	7.98	-13.35	-5.78	0.02	-0.11	-0.42
9746	6.32	-0.99	-3.92	0.03	-0.11	-0.42
9766	3.94	12.76	-2.20	0.05	-0.10	-0.42
9785	-0.09	26.41	-1.92	0.03	-0.08	-0.39
9804	-4.04	36.53	-3.57	0.01	-0.10	-0.37
9823	-5.86	46.04	-5.57	0.05	-0.10	-0.36
9843	-7.68	59.66	-7.77	0.09	-0.08	-0.32
9863	-10.10	75.45	-9.64	0.10	-0.07	-0.25
9882	-10.73	89.29	-11.05	0.08	-0.07	-0.18
9902	-10.35	100.45	-11.87	0.09	-0.06	-0.10
9920	-10.35	106.32	-12.28	0.12	-0.05	-0.03
9941	-10.16	119.32	-13.20	0.12	-0.05	0.03
9959	-8.82	131.70	-15.01	0.11	-0.04	0.07
9978	-9.08	141.66	-17.52	0.14	-0.00	0.16
9997	-12.30	155.50	-21.36	0.20	0.03	0.28
10015	-15.76	172.32	-25.65	0.20	0.02	0.38
10035	-18.05	187.45	-31.74	0.22	0.05	0.49
10053	-20.11	195.85	-35.92	0.29	0.08	0.61
10072	-25.21	216.83	-44.71	0.29	0.08	0.68
10090	-25.89	237.15	-53.33	0.25	0.03	0.75
10108	-23.36	252.47	-63.14	0.28	0.08	0.85
10127	-25.07	269.91	-71.30	0.28	0.08	1.00
10145	-20.66	283.91	-73.09	0.26	0.05	1.10
10165	-17.07	290.21	-72.97	0.25	0.08	1.13
10183	-14.83	300.64	-70.88	0.23	0.16	1.22
10201	-16.36	309.54	-62.74	0.20	0.15	1.36
10220	-17.33	310.35	-50.03	0.12	0.23	1.52
10239	-25.88	302.78	-37.67	0.12	0.33	1.68
10258	-38.06	298.86	-27.65	0.18	0.29	1.80
10276	-40.92	298.46	-22.22	0.12	0.24	1.99
10294	-38.02	291.49	-9.17	0.09	0.25	2.10
10313	-33.80	278.69	-4.73	0.13	0.27	2.27
10331	-28.00	272.28	-5.69	0.19	0.20	2.51
10351	-12.42	264.31	-1.02	0.15	0.20	2.75
10369	0.43	258.26	-10.30	0.30	0.28	2.83
10387	2.03	261.52	-22.81	0.37	0.30	2.88
10405	0.85	275.92	-43.95	0.31	0.31	3.02
10423	-1.43	277.68	-50.28	0.24	0.41	3.08
10442	-10.45	280.94	-56.78	0.34	0.41	2.94
10460	-22.66	294.78	-68.51	0.34	0.36	2.76
10478	-28.08	302.67	-71.81	0.37	0.38	2.65
10497	-42.10	327.16	-66.50	0.47	0.40	2.42
10515	-56.76	361.86	-52.06	0.50	0.32	2.19
10534	-59.91	398.33	-31.78	0.34	0.19	1.87
10553	-51.64	407.44	-6.06	-0.09	0.11	1.57
10573	-34.03	368.55	17.49	-0.47	0.03	1.37
10591	-23.82	335.34	25.88	-0.58	0.02	1.16
10609	-6.73	260.62	34.73	-0.56	0.02	1.06
10628	4.04	194.03	34.73	-0.44	0.02	0.89
10646	9.02	143.75	28.85	-0.32	0.08	0.76
10664	3.54	107.04	20.81	-0.27	0.14	0.66
10682	-2.40	90.62	16.71	-0.34	0.17	0.63
10700	-17.21	51.80	9.61	-0.40	0.16	0.63
10719	-30.91	-3.17	4.94	-0.58	0.11	0.66
10738	-36.25	-78.11	4.24	-0.70	0.03	0.70
10757	-31.72	-162.60	8.80	-0.72	-0.02	0.72
10777	-21.04	-247.16	19.07	-0.74	-0.03	0.74
10796	-8.30	-331.54	33.46	-0.71	-0.01	0.79
10816	1.88	-409.48	44.97	-0.67	0.02	0.95
10834	5.86	-446.62	50.19	-0.65	0.05	1.09
10854	12.04	-500.00	61.78	-0.43	0.15	1.42
10872	13.02	-499.62	62.61	0.14	0.24	1.84
10890	8.51	-499.63	47.99	0.79	0.39	2.38
10908	-3.75	-423.42	26.96	1.13	0.50	2.78
10926	-10.07	-366.59	15.15	1.15	0.41	2.88
10945	-16.56	-256.97	-10.74	1.06	0.37	2.88
10964	-15.29	-176.07	-27.28	0.55	0.35	2.91
10983	-7.57	-162.57	-21.18	0.01	0.27	2.89
11003	10.03	-200.09	-1.02	-0.20	0.20	2.78
11021	28.95	-254.53	21.35	-0.24	0.19	2.54
11040	39.49	-303.36	37.98	-0.07	0.25	2.23
11059	37.14	-326.81	45.96	0.12	0.28	2.05
11077	33.36	-330.38	46.36	0.16	0.27	1.99
11095	23.88	-333.21	42.94	0.16	0.28	1.87
11113	13.29	-329.99	38.62	0.26	0.26	1.74
11130	6.42	-315.43	30.75	0.25	0.21	1.67
11149	4.90	-309.86	26.29	0.16	0.18	1.62
11167	4.64	-314.25	20.66	-0.03	0.13	1.45
11186	8.77	-332.28	21.44	-0.04	0.07	1.17
11204	16.04	-341.08	22.60	0.07	0.04	0.90
11221	19.36	-339.20	22.02	0.15	0.06	0.69
11240	22.57	-326.87	20.80	0.15	0.05	0.62
11258	25.53	-310.38	20.72	0.15	0.03	0.52
11277	27.37	-291.96	25.59	0.18	0.05	0.43
11294	27.44	-264.42	31.60	0.25	0.03	0.32
11312	27.48	-247.18	33.81	0.26	0.00	0.28
11330	28.32	-211.98	36.15	0.22	0.00	0.22
11348	26.29	-180.85	38.01	0.17	0.03	0.16
11367	22.26	-152.02	39.87	0.14	-0.01	0.08
11385	20.29	-127.52	40.44	0.09	-0.03	0.04
11403	18.97	-117.75	40.10	0.03	-0.03	0.01
11423	16.04	-103.55	38.07	0.01	-0.03	-0.01
11441	14.27	-93.41	33.87	-0.01	-0.04	-0.06
11461	10.60	-83.92	27.69	-0.02	-0.03	-0.10
11481	4.38	-75.06	20.37	-0.04	-0.02	-0.13
11501	-1.82	-67.81	13.34	-0.05	-0.05	-0.17
11520	-3.88	-58.52	7.92	-0.01	-0.09	-0.25
11540	-3.02	-41.17	3.13	0.03	-0.10	-0.29
11559	-1.16	-20.95	-1.85	0.02	-0.10	-0.29
11580	1.16	-3.91	-6.26	0.01	-0.10	-0.29
11600	4.04	10.59	-8.80	0.01	-0.10	-0.30
11618	6.03	25.91	-10.31	0.04	-0.10	-0.32
11638	6.47	34.27	-11.05	0.05	-0.09	-0.33
11656	6.01	50.93	-13.12	0.05	-0.08	-0.34
11676	4.30	65.17	-15.75	0.03	-0.09	-0.33
11695	3.20	75.99	-18.66	0.03	-0.09	-0.30
11714	1.65	85.72	-21.85	0.04	-0.07	-0.25
11733	-0.67	96.10	-24.96	0.06	-0.07	-0.23
11752	-2.84	106.45	-29.79	0.06	-0.06	-0.20
11773	-6.84	116.41	-34.30	0.07	-0.02	-0.12
11792	-11.63	126.25	-37.40	0.08	-0.02	-0.02
11811	-13.76	130.69	-38.70	0.07	-0.03	0.07
11830	-16.43	138.08	-40.70	0.09	-0.03	0.11
11849	-19.39	148.57	-42.47	0.16	0.01	0.21
11868	-24.37	163.50	-43.56	0.17	0.03	0.33
11887	-28.06	176.39	-42.97	0.13	0.02	0.42
11905	-30.27	185.55	-41.95	0.16	0.04	0.53
11924	-33.17	197.89	-42.04	0.22	0.06	0.64
11942	-35.05	205.92	-42.05	0.23	0.06	0.74
11961	-35.64	222.73	-40.86	0.20	0.04	0.79
11980	-32.87	234.68	-39.78	0.24	0.09	0.91
11998	-35.84	253.34	-44.20	0.35	0.15	1.01
12017	-43.24	281.98	-49.51	0.36	0.18	1.12
12035	-50.31	305.28	-51.57	0.31	0.19	1.26
12054	-53.73	314.67	-51.99	0.26	0.21	1.45
12072	-59.25	327.36	-49.91	0.21	0.18	1.56
12092	-55.69	328.17	-41.32	0.12	0.14	1.75
12110	-46.97	316.10	-29.86	0.00	0.21	1.95
12128	-42.80	293.41	-19.50	0.04	0.27	2.20
12147	-39.06	278.02	-12.07	0.14	0.24	2.44
12165	-36.01	273.64	-9.34	0.15	0.26	2.56
12184	-32.04	268.20	-9.95	0.26	0.38	2.76
12202	-36.04	276.50	-14.13	0.42	0.43	2.94
12222	-41.87	299.10	-19.41	0.47	0.41	3.01
12240	-48.28	322.83	-31.78	0.45	0.37	2.94
12258	-50.87	333.69	-40.50	0.35	0.25	2.91
12276	-46.14	347.32	-53.12	0.28	0.20	2.91
12295	-30.09	342.70	-48.84	0.06	0.25	2.90
12313	-18.91	318.63	-33.13	0.04	0.37	2.80
12331	-25.12	309.97	-13.24	0.35	0.53	2.63
12349	-35.39	319.44	0.99	0.54	0.59	2.43
12366	-58.38	357.09	33.83	0.56	0.44	2.33
12384	-53.44	397.16	57.22	0.42	0.15	2.05
12401	-23.80	412.02	64.68	-0.01	-0.04	1.74
12420	-4.65	400.18	64.10	-0.38	-0.05	1.44
12439	28.75	345.81	55.60	-0.45	-0.01	1.29
12457	44.68	280.04	40.79	-0.45	0.10	1.03
12474	43.00	218.72	21.74	-0.45	0.13	0.87
12494	31.40	157.58	-1.04	-0.46	0.19	0.74
12512	10.59	100.07	-22.29	-0.42	0.23	0.64
12530	-1.92	73.52	-30.79	-0.41	0.22	0.61
12550	-22.40	21.82	-44.30	-0.43	0.12	0.58
12568	-29.89	-36.44	-52.40	-0.55	0.04	0.60
12588	-26.54	-109.60	-52.05	-0.68	-0.02	0.62
12608	-15.50	-193.62	-42.31	-0.75	-0.03	0.67
12628	-0.44	-282.61	-22.66	-0.75	-0.04	0.71
12648	17.20	-368.62	2.96	-0.76	-0.08	0.81
12667	36.35	-459.40	29.92	-0.80	-0.01	1.05
12686	45.64	-500.00	60.68	-0.36	0.11	1.25
12705	45.06	-499.45	74.05	0.25	0.23	1.63
12723	36.48	-500.00	88.81	0.48	0.26	1.94
12741	28.66	-488.74	82.70	0.86	0.30	2.58
12760	19.41	-393.83	58.09	1.23	0.44	2.81
12777	0.41	-274.51	27.85	1.18	0.44	2.78
12795	-7.28	-220.00	13.49	1.00	0.39	2.77
12814	-15.41	-150.04	-8.90	0.45	0.31	2.77
12833	-13.98	-148.48	-18.55	-0.12	0.23	2.83
12853	-2.91	-207.66	-16.05	-0.46	0.19	2.75
12872	14.11	-289.26	-3.04	-0.35	0.14	2.41
12890	31.78	-339.52	14.94	-0.03	0.12	2.05
12910	41.73	-350.78	31.85	0.19	0.20	1.81
12928	41.79	-346.74	38.70	0.24	0.22	1.75
12946	37.14	-334.67	48.72	0.19	0.22	1.77
12964	32.56	-328.98	56.21	0.17	0.18	1.72
12981	30.43	-319.20	61.46	0.23	0.20	1.61
13000	22.42	-303.51	60.56	0.23	0.22	1.46
13018	17.26	-295.27	58.53	0.21	0.20	1.39
13036	8.18	-282.26	55.02	0.15	0.15	1.24
13054	3.34	-274.03	54.18	0.15	0.10	1.04
13072	0.03	-263.02	53.63	0.17	0.09	0.85
13090	-1.72	-255.98	53.13	0.18	0.08	0.68
13109	-5.86	-240.39	51.56	0.17	0.07	0.62
13127	-8.27	-226.82	49.36	0.13	0.04	0.52
13146	-7.98	-217.62	47.03	0.09	0.01	0.41
13164	-5.46	-211.62	44.62	0.08	-0.01	0.33
13184	-0.66	-204.13	41.66	0.12	-0.04	0.27
13202	2.03	-198.32	39.31	0.16	-0.03	0.18
13222	5.55	-181.96	33.92	0.17	-0.03	0.14
13240	7.42	-162.28	28.12	0.17	-0.03	0.05
13258	8.03	-142.78	21.67	0.15	-0.03	0.01
13277	8.19	-126.30	14.30	0.12	-0.04	-0.04
13295	7.97	-112.03	6.87	0.10	-0.05	-0.09
13316	7.35	-98.07	0.58	0.10	-0.05	-0.14
13334	6.70	-90.85	-2.67	0.11	-0.04	-0.16
13353	4.90	-74.92	-9.32	0.12	-0.05	-0.21
13373	2.35	-57.16	-15.99	0.12	-0.05	-0.25
13392	-1.08	-40.57	-20.45	0.09	-0.05	-0.28
13413	-4.32	-26.06	-22.46	0.08	-0.06	-0.32
13432	-6.77	-12.33	-22.34	0.08	-0.07	-0.36
13453	-8.16	1.33	-19.74	0.07	-0.08	-0.42
13472	-9.66	14.39	-15.79	0.05	-0.10	-0.46
13491	-10.04	25.86	-12.10	0.04	-0.10	-0.49
13511	-11.43	36.79	-9.37	0.04	-0.09	-0.49
13530	-13.98	49.09	-6.70	0.07	-0.08	-0.48
13551	-16.13	63.67	-4.24	0.08	-0.09	-0.47
13569	-16.56	78.16	-2.73	0.07	-0.09	-0.42
13589	-16.56	85.02	-2.35	0.06	-0.08	-0.36
13608	-15.84	96.98	-1.34	0.05	-0.08	-0.33
13628	-13.96	106.64	-0.12	0.05	-0.08	-0.26
13648	-12.28	116.07	0.93	0.06	-0.06	-0.16
13666	-11.12	126.02	1.25	0.08	-0.05	-0.04
13685	-9.29	135.97	0.26	0.09	-0.04	0.08
13703	-7.19	144.81	-1.27	0.08	-0.02	0.21
13722	-5.77	151.63	-3.57	0.10	-0.00	0.38
13742	-5.25	155.61	-5.71	0.16	0.01	0.50
13760	-4.55	167.66	-12.01	0.21	0.02	0.56
13778	-4.59	187.06	-19.62	0.25	0.05	0.71
13796	-6.35	207.57	-27.45	0.25	0.07	0.83
13814	-8.38	227.34	-35.98	0.26	0.05	0.89
13832	-8.93	237.52	-41.72	0.26	0.04	0.95
13850	-11.28	256.96	-56.17	0.27	0.09	1.09
13869	-18.16	275.13	-69.87	0.26	0.11	1.20
13887	-23.39	292.18	-81.18	0.30	0.07	1.28
13905	-27.57	311.61	-93.61	0.29	0.17	1.42
13923	-32.46	319.76	-97.44	0.24	0.21	1.52
13941	-40.99	325.00	-96.66	0.12	0.14	1.71
13959	-40.36	318.25	-88.41	0.15	0.15	1.92
13977	-42.01	316.99	-76.74	0.21	0.25	2.09
13995	-44.63	318.24	-68.24	0.09	0.25	2.29
14013	-46.17	309.88	-42.51	0.03	0.26	2.40
14031	-45.72	289.63	-14.68	0.06	0.31	2.62
14049	-47.36	272.98	-1.97	0.13	0.34	2.76
14068	-50.66	266.92	6.87	0.26	0.33	2.90
14085	-49.13	269.24	13.14	0.35	0.30	2.95
14103	-42.10	290.59	16.36	0.52	0.31	3.03
14121	-38.80	321.08	1.42	0.47	0.29	3.03
14139	-35.08	340.19	-14.65	0.32	0.26	2.97
14157	-31.71	343.60	-18.36	0.27	0.23	2.91
14175	-20.42	344.09	-22.98	0.18	0.19	2.73
14193	-12.02	337.37	-29.43	0.13	0.26	2.53
14211	-17.99	332.43	-26.35	0.17	0.39	2.32
14229	-25.83	333.45	-20.37	0.29	0.38	2.12
14247	-41.53	347.26	-6.18	0.36	0.29	2.03
14265	-41.60	374.33	8.30	0.30	0.19	1.82
14283	-33.08	379.64	25.68	-0.09	0.16	1.60
14302	-21.29	343.67	42.31	-0.39	0.12	1.37
14320	-15.53	315.22	48.54	-0.47	0.07	1.13
14340	-4.30	252.33	55.47	-0.46	0.06	1.02
14359	3.63	194.43	55.79	-0.40	0.07	0.82
14376	5.54	145.28	49.84	-0.36	0.09	0.68
14395	1.13	98.34	37.84	-0.41	0.12	0.61
14412	-4.10	72.13	30.55	-0.56	0.15	0.63
14430	-17.87	6.68	15.70	-0.66	0.15	0.66
14450	-30.20	-81.63	5.13	-0.84	0.13	0.69
14469	-36.67	-184.36	1.31	-0.87	0.08	0.68
14488	-36.01	-284.10	-1.25	-0.81	0.05	0.66
14507	-34.45	-374.91	-3.36	-0.75	0.14	0.72
14526	-40.34	-454.74	4.94	-0.62	0.19	0.89
14547	-40.42	-500.00	25.04	-0.48	0.07	1.16
14566	-21.77	-499.71	42.82	-0.13	0.01	1.59
14584	-9.32	-500.00	46.16	0.54	0.02	2.09
14602	17.76	-500.00	37.26	0.82	0.07	2.32
14621	33.51	-430.74	13.34	1.10	0.33	2.64
14639	21.74	-316.28	-11.63	1.12	0.51	2.66
14657	-2.72	-216.45	-28.70	0.79	0.48	2.66
14677	-13.70	-183.94	-32.23	0.21	0.42	2.67
14695	-30.46	-170.33	-27.53	-0.07	0.36	2.69
14715	-31.94	-220.21	-9.51	-0.42	0.18	2.65
14734	-9.93	-292.43	10.47	-0.32	-0.03	2.36
14755	21.18	-344.09	21.21	-0.18	-0.04	2.06
14774	43.15	-375.61	24.83	-0.03	0.05	1.83
14792	47.76	-388.02	23.21	0.13	0.15	1.76
14810	38.65	-382.80	20.13	0.26	0.24	1.77
14828	31.95	-374.02	21.12	0.31	0.24	1.76
14846	20.75	-347.43	26.49	0.43	0.23	1.68
14865	12.37	-302.76	30.27	0.58	0.18	1.52
14883	8.03	-245.57	31.08	0.56	0.13	1.37
14901	7.90	-198.96	31.19	0.38	0.11	1.23
14919	8.45	-183.90	31.52	0.29	0.09	1.16
14936	12.19	-167.59	31.68	0.17	0.05	1.03
14956	18.86	-161.51	32.38	0.16	0.03	0.86
14973	22.67	-153.44	35.84	0.16	0.07	0.67
14992	21.70	-148.77	38.91	0.13	0.08	0.51
15009	16.83	-141.37	46.23	0.11	0.08	0.46
15027	11.00	-139.22	51.16	0.05	0.04	0.37
15046	6.59	-143.25	51.30	0.00	0.01	0.29
15063	3.25	-150.63	47.03	0.00	-0.00	0.21
15083	1.53	-153.49	43.21	0.07	-0.01	0.12
15101	-2.32	-151.54	33.48	0.10	-0.01	0.09
15119	-5.25	-141.77	23.28	0.13	-0.02	0.05
15139	-6.26	-128.40	13.99	0.11	-0.04	0.01
15158	-5.62	-118.68	4.58	0.06	-0.05	-0.04
15178	-5.05	-109.59	-3.72	0.11	-0.03	-0.11
15197	-5.86	-91.49	-10.38	0.19	-0.04	-0.18
15218	-5.45	-65.90	-15.27	0.21	-0.06	-0.22
15237	-4.06	-39.83	-19.44	0.18	-0.07	-0.25
15258	-1.79	-17.78	-22.38	0.15	-0.07	-0.28
15277	0.40	1.31	-23.16	0.14	-0.08	-0.32
15296	1.74	10.77	-22.74	0.15	-0.09	-0.36
15315	4.29	30.93	-21.10	0.16	-0.10	-0.38
15334	6.07	50.96	-20.26	0.14	-0.09	-0.39
15354	6.81	66.96	-20.03	0.10	-0.09	-0.38
15373	6.35	77.50	-19.20	0.07	-0.08	-0.36
15391	4.71	84.66	-16.54	0.04	-0.07	-0.32
15411	2.81	87.49	-11.41	0.02	-0.06	-0.27
15429	-0.31	90.23	-6.42	0.05	-0.06	-0.26
15449	-4.07	95.40	-4.41	0.03	-0.05	-0.21
15469	-6.13	96.83	-4.50	-0.01	-0.04	-0.13
15488	-10.48	95.25	-5.69	-0.03	-0.04	-0.09
15509	-13.81	89.63	-6.97	-0.05	-0.05	-0.02
15528	-14.56	82.92	-8.00	-0.05	-0.06	0.06
15548	-15.85	76.93	-8.77	-0.05	-0.01	0.17
15567	-20.32	69.66	-8.99	-0.06	0.03	0.29
15587	-25.01	61.84	-7.54	-0.03	0.01	0.43
15606	-26.61	59.68	-6.33	0.08	0.03	0.56
15624	-30.52	71.08	-8.10	0.24	0.10	0.72
15643	-37.38	98.71	-11.37	0.37	0.08	0.86
15662	-38.73	117.37	-13.99	0.45	0.06	0.94
15680	-37.80	167.22	-23.82	0.60	0.08	1.06
15699	-39.54	230.61	-40.68	0.66	0.12	1.10
15717	-40.36	293.78	-57.19	0.60	0.04	1.15
15736	-32.73	347.63	-68.16	0.49	0.01	1.27
15754	-24.67	381.12	-75.24	0.25	0.07	1.45
15773	-23.38	385.62	-78.25	0.10	0.11	1.55
15792	-26.17	368.07	-78.11	-0.10	0.17	1.75
15810	-32.30	336.46	-68.47	-0.04	0.25	1.91
15830	-44.34	309.81	-58.49	-0.08	0.29	2.05
15848	-56.88	272.03	-52.02	-0.16	0.28	2.24
15867	-64.74	238.13	-42.16	0.15	0.27	2.40
15886	-66.21	240.26	-29.94	0.27	0.24	2.58
15904	-63.46	243.06	-24.77	0.14	0.18	2.73
15923	-46.36	222.47	-17.47	0.06	0.18	3.06
15941	-34.65	222.08	-18.01	0.64	0.27	3.00
15959	-31.81	277.85	-24.96	0.71	0.29	2.85
15979	-31.80	323.68	-30.00	0.34	0.29	2.76
15997	-31.77	330.80	-30.41	0.20	0.30	2.64
16016	-31.77	333.50	-25.51	0.21	0.31	2.58
16034	-33.80	335.92	-16.80	0.19	0.38	2.53
16052	-49.18	339.00	0.82	0.29	0.56	2.52
16071	-73.53	361.97	29.04	0.57	0.51	2.42
16089	-77.01	410.84	51.24	0.60	0.16	2.25
16108	-64.90	433.58	58.47	0.44	0.04	2.11
16126	-26.12	446.52	66.44	-0.04	-0.03	1.80
16144	9.63	409.77	68.71	-0.38	0.02	1.46
16163	27.19	346.39	62.65	-0.49	0.13	1.17
16181	25.13	278.76	45.30	-0.46	0.17	0.93
16199	19.78	248.47	33.34	-0.41	0.17	0.82
16217	4.75	198.09	6.30	-0.33	0.16	0.65
16235	-11.76	155.21	-21.32	-0.34	0.11	0.55
16254	-24.25	107.04	-45.58	-0.43	0.06	0.50
16273	-31.23	47.94	-61.77	-0.58	0.03	0.50
16293	-32.12	11.31	-65.54	-0.79	0.01	0.51
16312	-29.48	-81.89	-62.19	-0.89	-0.03	0.50
16331	-21.10	-182.43	-46.04	-0.93	-0.05	0.49
16351	-5.86	-287.46	-23.39	-0.90	-0.07	0.46
16371	10.91	-388.75	0.79	-0.91	-0.06	0.49
16390	22.28	-484.94	30.87	-0.93	-0.02	0.56
16409	28.32	-500.00	63.22	-0.79	0.05	0.77
16427	25.82	-500.00	93.92	-0.47	0.11	1.16
16446	22.64	-499.98	116.06	-0.00	0.09	1.79
16464	24.09	-500.00	119.32	0.91	0.24	2.50
16483	23.57	-500.00	101.29	1.32	0.31	2.76
16501	14.59	-442.98	59.11	1.68	0.47	3.09
16519	-5.34	-271.62	14.86	1.49	0.48	3.02
16538	-21.65	-144.93	-22.75	0.97	0.37	2.77
16556	-26.12	-104.63	-37.14	0.28	0.30	2.74
16576	-27.50	-85.27	-49.90	-0.12	0.26	2.78
16595	-12.41	-153.72	-35.03	-0.67	0.10	2.68
16614	15.90	-253.46	-12.51	-0.41	0.07	2.20
16634	35.42	-307.24	4.41	-0.10	0.09	1.88
16652	49.70	-328.34	22.32	0.07	0.08	1.73
16670	57.02	-332.00	32.23	0.17	0.17	1.69
16688	54.50	-330.66	33.78	0.20	0.29	1.66
16706	39.44	-325.09	41.02	0.26	0.25	1.62
16725	28.41	-303.63	51.06	0.45	0.20	1.52
16742	16.85	-264.74	54.58	0.46	0.22	1.45
16761	6.07	-235.15	54.57	0.28	0.14	1.33
16779	4.18	-228.67	54.93	0.21	0.07	1.22
16797	8.06	-223.28	55.13	0.18	0.03	0.98
16815	11.63	-217.61	52.96	0.16	0.05	0.79
16833	11.60	-213.27	50.70	0.13	0.06	0.66
16852	10.01	-209.59	49.94	0.11	0.02	0.50
16869	10.21	-207.79	49.21	0.10	0.00	0.43
16887	10.04	-204.91	45.70	0.07	-0.00	0.31
16907	8.80	-203.90	40.16	0.04	0.00	0.25
16924	5.52	-206.53	33.22	0.01	0.01	0.18
16942	3.91	-208.39	29.56	0.03	-0.01	0.10
16961	1.53	-209.61	22.40	0.04	-0.02	0.06
16979	1.53	-206.70	16.42	0.05	-0.05	-0.02
16999	1.72	-201.72	11.72	0.03	-0.04	-0.07
17018	1.19	-196.88	8.00	0.04	-0.04	-0.13
17036	0.85	-188.02	4.93	0.07	-0.06	-0.20
17055	2.04	-172.74	1.53	0.10	-0.08	-0.26
17074	3.05	-163.35	-0.58	0.10	-0.08	-0.28
17094	4.93	-142.64	-5.10	0.12	-0.09	-0.30
17113	7.02	-118.79	-8.54	0.13	-0.10	-0.34
17133	9.63	-92.94	-10.01	0.12	-0.12	-0.38
17152	13.60	-68.50	-9.32	0.08	-0.13	-0.40
17172	17.58	-47.71	-7.16	0.06	-0.14	-0.44
17191	20.43	-29.63	-4.90	0.04	-0.13	-0.46
17211	20.86	-13.89	-2.49	0.01	-0.13	-0.47
17231	20.58	-1.42	0.00	-0.01	-0.14	-0.48
17250	19.70	9.17	2.50	0.02	-0.13	-0.49
17269	18.75	16.28	3.85	0.06	-0.11	-0.47
17287	15.11	33.33	6.24	0.06	-0.10	-0.44
17306	10.13	50.52	8.53	0.06	-0.09	-0.40
17325	4.65	66.18	11.35	0.06	-0.09	-0.37
17343	0.24	80.96	14.40	0.08	-0.10	-0.32
17362	-1.86	96.05	16.42	0.09	-0.09	-0.26
17381	-4.20	110.23	16.53	0.09	-0.06	-0.21
17400	-6.55	116.79	16.08	0.11	-0.04	-0.14
17420	-12.25	130.05	14.66	0.14	-0.03	-0.06
17438	-17.79	145.74	11.90	0.17	-0.03	-0.01
17457	-21.53	165.79	5.86	0.22	-0.01	0.09
17475	-24.57	189.27	-1.98	0.23	-0.02	0.18
17494	-24.83	210.60	-10.96	0.21	-0.05	0.25
17514	-20.89	228.84	-21.45	0.24	-0.06	0.36
17532	-17.62	249.02	-35.26	0.27	0.00	0.48
17552	-17.85	259.12	-42.88	0.22	0.02	0.64
17570	-18.10	273.50	-56.99	0.17	-0.02	0.71
17588	-8.51	277.51	-65.99	0.16	-0.10	0.87
17609	4.14	282.42	-75.61	0.23	0.05	1.02
17626	-0.90	294.45	-86.67	0.25	0.15	1.12
17646	-9.48	307.50	-91.20	0.28	0.08	1.24
17664	-10.79	315.00	-90.76	0.30	0.15	1.33
17683	-17.12	332.28	-88.27	0.29	0.20	1.41
17701	-33.14	344.57	-87.84	0.27	0.27	1.60
17720	-47.74	350.86	-81.94	0.18	0.18	1.83
17739	-47.03	343.25	-67.60	0.05	0.15	2.04
17757	-42.07	320.50	-52.06	-0.02	0.19	2.24
17776	-33.25	292.02	-34.81	-0.07	0.16	2.39
17795	-27.22	275.77	-25.10	-0.07	0.17	2.46
17813	-18.25	245.35	-10.73	0.06	0.31	2.70
17833	-20.48	239.64	-10.07	0.41	0.40	2.89
17851	-31.48	269.96	-12.34	0.67	0.43	3.07
17870	-40.33	320.65	-20.28	0.70	0.36	3.14
17888	-41.75	344.85	-30.93	0.58	0.18	3.03
17906	-33.89	382.63	-57.22	0.45	0.14	2.95
17925	-22.43	388.99	-72.01	0.06	0.23	2.87
17943	-28.50	363.13	-67.72	0.17	0.48	2.89
17962	-53.51	364.12	-48.34	0.48	0.49	2.75
17980	-65.75	395.97	-22.99	0.63	0.26	2.61
17998	-62.18	416.44	-9.43	0.57	0.22	2.42
18017	-49.27	443.56	17.26	0.18	0.15	1.90
18035	-30.73	426.65	37.06	-0.25	0.04	1.50
18054	-9.51	370.09	43.29	-0.50	-0.02	1.19
18072	5.16	297.27	35.87	-0.52	0.00	0.97
18090	8.56	261.44	28.64	-0.51	0.02	0.89
18108	7.80	193.77	12.28	-0.47	0.09	0.78
18127	-3.34	132.49	-0.18	-0.43	0.14	0.67
18146	-19.90	77.74	-6.73	-0.41	0.13	0.59
18165	-31.80	26.21	-8.30	-0.44	0.03	0.53
18183	-32.93	-31.57	-7.28	-0.56	-0.03	0.52
18204	-26.21	-103.39	-3.10	-0.68	-0.08	0.53
18224	-13.44	-184.78	5.74	-0.76	-0.10	0.55
18244	0.55	-276.50	18.78	-0.87	-0.10	0.59
18262	7.71	-325.52	26.18	-0.90	-0.10	0.62
18281	21.56	-424.80	39.08	-0.87	-0.06	0.66
18300	27.34	-500.00	48.36	-0.77	0.06	0.81
18318	21.71	-499.45	61.63	-0.46	0.18	1.11
18337	11.06	-500.00	76.89	0.16	0.23	1.60
18355	7.64	-499.98	79.88	0.79	0.21	2.35
18373	9.06	-498.84	66.30	1.10	0.22	2.67
18391	13.24	-388.37	31.66	1.50	0.35	2.89
18409	5.69	-242.03	-5.75	1.24	0.36	2.79
18428	-3.81	-143.51	-33.66	0.65	0.36	2.72
18446	-8.65	-121.32	-42.60	0.03	0.35	2.78
18465	-15.05	-132.58	-46.98	-0.22	0.31	2.80
18483	-7.52	-199.57	-31.10	-0.46	0.17	2.72
18502	16.04	-277.54	-6.71	-0.26	0.08	2.48
18521	36.53	-317.29	10.38	0.13	0.15	2.18
18538	42.10	-315.90	17.94	0.32	0.18	1.95
18556	42.05	-307.94	18.46	0.35	0.17	1.87
18574	38.89	-286.04	15.73	0.40	0.23	1.80
18592	28.79	-261.09	14.91	0.39	0.27	1.72
18609	22.46	-249.39	16.74	0.26	0.19	1.64
18627	15.29	-237.69	21.07	0.19	0.16	1.58
18647	15.21	-240.33	23.06	0.10	0.12	1.41
18664	16.49	-249.94	25.13	0.06	0.10	1.20
18682	18.39	-261.41	30.47	-0.01	0.07	0.99
18700	19.70	-268.68	33.97	0.02	0.06	0.79
18718	21.96	-278.31	40.70	0.06	0.04	0.70
18735	24.48	-277.36	46.05	0.11	0.02	0.55
18753	25.53	-268.75	50.84	0.12	0.03	0.46
18771	25.30	-263.76	52.52	0.09	0.03	0.38
18789	23.90	-254.84	54.57	0.07	0.02	0.34
18806	21.90	-248.14	55.57	0.06	0.01	0.27
18824	19.24	-239.36	55.28	0.10	0.01	0.18
18844	14.14	-223.57	51.16	0.14	0.03	0.13
18861	10.73	-214.16	47.97	0.13	0.03	0.12
18879	3.88	-195.48	40.13	0.12	0.01	0.10
18897	0.03	-176.73	33.36	0.13	-0.01	0.04
18915	-0.40	-152.44	28.38	0.18	-0.05	-0.06
18935	1.25	-123.49	23.03	0.16	-0.07	-0.12
18954	2.70	-109.92	20.22	0.12	-0.08	-0.16
18973	5.46	-86.41	14.60	0.10	-0.08	-0.18
18992	7.39	-65.93	10.51	0.08	-0.07	-0.24
19011	7.80	-47.15	7.98	0.07	-0.08	-0.29
19030	7.90	-28.95	5.29	0.08	-0.09	-0.36
19049	8.15	-8.90	2.67	0.10	-0.11	-0.41
19068	8.13	12.60	0.23	0.10	-0.10	-0.45
19087	7.48	23.01	-1.14	0.08	-0.10	-0.46
19105	5.43	41.21	-4.39	0.06	-0.10	-0.45
19125	3.71	54.29	-7.32	0.04	-0.10	-0.44
19144	1.85	65.19	-9.54	0.06	-0.09	-0.44
19162	-1.46	76.83	-11.67	0.08	-0.09	-0.43
19182	-4.56	89.69	-14.42	0.08	-0.09	-0.41
19201	-8.30	100.94	-17.21	0.07	-0.07	-0.37
19221	-13.09	109.82	-19.32	0.06	-0.06	-0.33
19240	-17.35	118.07	-19.65	0.08	-0.07	-0.28
19259	-18.89	122.39	-19.44	0.08	-0.06	-0.21
19279	-20.54	130.83	-18.92	0.03	-0.06	-0.11
19298	-21.27	133.90	-18.65	-0.00	-0.06	-0.05
19319	-20.39	129.85	-18.05	-0.02	-0.07	0.05
19338	-18.59	126.28	-17.96	0.03	-0.04	0.16
19358	-19.20	128.17	-19.44	0.07	-0.01	0.29
19376	-21.00	132.23	-22.38	0.08	-0.01	0.39
19396	-21.13	137.97	-25.21	0.12	-0.02	0.49
19414	-18.22	148.38	-29.08	0.18	-0.02	0.63
19433	-15.90	164.15	-35.40	0.23	0.02	0.75
19452	-16.30	173.75	-38.33	0.28	0.03	0.88
19471	-16.16	196.23	-42.05	0.33	0.01	0.95
19490	-11.75	227.55	-46.01	0.42	0.04	1.01
19508	-13.72	265.76	-53.30	0.43	0.14	1.08
19526	-25.65	301.85	-59.54	0.40	0.15	1.15
19545	-34.15	331.38	-61.87	0.32	0.11	1.25
19563	-36.48	340.84	-62.61	0.23	0.12	1.34
19582	-41.81	344.18	-63.83	0.11	0.15	1.49
19600	-47.00	334.58	-59.63	0.03	0.12	1.71
19618	-43.18	314.74	-46.91	-0.03	0.13	1.94
19638	-40.18	288.85	-32.32	-0.02	0.21	2.13
19657	-38.68	266.10	-16.39	0.09	0.15	2.34
19676	-34.35	259.84	-6.38	0.21	0.20	2.50
19694	-27.30	257.84	11.32	0.24	0.27	2.58
19711	-28.14	262.31	16.34	0.33	0.28	2.73
19730	-24.99	283.10	15.78	0.58	0.26	2.73
19748	-22.67	328.29	12.25	0.63	0.32	2.64
19766	-23.50	350.66	6.23	0.48	0.28	2.59
19785	-20.46	363.60	-13.66	-0.02	0.18	2.59
19803	-17.55	321.11	-30.87	-0.30	0.28	2.63
19822	-23.47	263.00	-38.16	-0.21	0.29	2.59
19841	-26.58	223.04	-43.29	0.03	0.26	2.50
19859	-28.50	215.41	-44.16	0.41	0.29	2.43
19879	-33.22	233.86	-39.61	0.74	0.30	2.27
19897	-39.63	292.66	-28.64	0.77	0.24	2.15
19915	-37.93	353.44	-17.90	0.46	0.18	1.83
19933	-33.25	368.12	-5.55	-0.10	0.10	1.50
19952	-24.48	325.29	6.61	-0.48	0.04	1.24
19970	-19.59	291.08	11.90	-0.55	0.04	1.12
19988	-11.73	216.28	21.09	-0.56	0.01	0.95
20006	-3.37	146.59	26.17	-0.49	-0.01	0.80
20025	4.46	86.33	26.93	-0.44	-0.01	0.71
20043	8.56	32.06	24.96	-0.42	0.02	0.66
20060	8.64	5.49	22.87	-0.44	0.04	0.66
20080	5.07	-52.92	18.60	-0.54	0.07	0.68
20098	-0.24	-124.02	15.95	-0.66	0.06	0.72
20118	-3.72	-205.52	15.40	-0.70	0.05	0.78
20136	-4.44	-288.93	16.85	-0.71	0.05	0.91
20155	-3.19	-374.30	24.49	-0.69	0.09	1.07
20175	-1.65	-447.27	35.64	-0.47	0.08	1.25
20193	-0.17	-473.91	41.46	-0.36	0.08	1.41
20213	5.75	-500.00	54.63	0.01	0.09	1.84
20230	17.99	-492.42	56.30	0.52	0.08	2.28
20248	27.37	-427.67	45.73	0.94	0.26	2.64
20266	26.44	-381.47	41.21	1.00	0.34	2.87
20284	20.05	-287.98	29.68	0.95	0.31	2.88
20302	14.21	-213.12	9.25	0.66	0.34	2.91
20319	3.37	-182.04	-5.62	0.19	0.40	2.96
20337	-8.36	-207.75	-8.36	-0.16	0.32	2.88
20356	-9.95	-233.18	-7.93	-0.19	0.26	2.79
20375	-4.43	-283.17	-3.05	-0.09	0.16	2.54
20394	8.51	-311.61	9.38	0.13	0.11	2.20
20412	21.67	-309.23	20.36	0.34	0.10	1.92
20430	30.50	-288.28	26.15	0.33	0.13	1.79
20447	32.61	-279.66	29.77	0.26	0.14	1.74
20465	32.12	-275.47	40.41	0.11	0.16	1.62
20485	27.44	-285.93	48.95	0.02	0.14	1.50
20502	22.17	-302.32	51.38	-0.00	0.13	1.35
20520	16.60	-318.12	51.70	-0.04	0.13	1.18
20539	13.24	-327.45	52.81	-0.07	0.12	1.10
20557	8.68	-343.95	54.67	0.03	0.06	0.88
20575	8.06	-343.08	51.45	0.17	0.02	0.71
20594	8.48	-326.02	44.80	0.23	0.02	0.58
20611	6.99	-303.41	37.41	0.22	0.05	0.50
20630	5.08	-292.62	33.83	0.21	0.05	0.46
20648	2.26	-272.78	26.92	0.19	0.02	0.40
20665	2.24	-254.81	21.68	0.15	0.01	0.33
20684	4.00	-238.13	17.88	0.16	-0.02	0.26
20702	5.23	-229.17	16.16	0.15	-0.01	0.17
20722	6.21	-210.74	13.00	0.15	-0.00	0.12
20740	4.09	-191.51	11.40	0.13	0.00	0.03
20757	1.62	-171.80	11.52	0.12	-0.02	-0.02
20777	1.57	-153.93	11.37	0.08	-0.04	-0.07
20796	3.42	-140.64	10.86	0.03	-0.06	-0.11
20815	6.06	-130.58	11.03	0.01	-0.07	-0.18
20834	7.58	-125.32	11.57	0.03	-0.07	-0.24
20852	10.22	-112.37	13.41	0.03	-0.08	-0.27
20872	12.62	-97.26	14.51	0.02	-0.08	-0.32
20891	14.25	-83.37	14.08	0.00	-0.09	-0.37
20911	14.74	-70.69	13.96	-0.02	-0.08	-0.42
20930	15.63	-60.06	14.71	-0.04	-0.10	-0.45
20950	16.80	-50.87	16.28	-0.06	-0.10	-0.48
20969	17.23	-43.03	16.60	-0.08	-0.10	-0.51
20988	17.70	-36.83	15.84	-0.10	-0.12	-0.54
21008	18.84	-28.81	13.79	-0.05	-0.12	-0.55
21027	19.03	-22.37	12.25	-0.03	-0.11	-0.55
21047	18.05	-6.10	8.27	-0.00	-0.10	-0.55
21065	17.04	12.37	4.49	0.00	-0.12	-0.54
21085	17.90	31.57	-0.31	0.03	-0.12	-0.51
21104	18.52	52.41	-7.11	0.04	-0.11	-0.48
21122	18.88	73.93	-14.02	0.04	-0.11	-0.46
21142	18.91	93.75	-19.21	0.05	-0.11	-0.42
21160	17.55	111.63	-22.52	0.05	-0.09	-0.37
21180	15.63	119.86	-24.08	0.08	-0.05	-0.32
21199	10.04	137.66	-27.22	0.10	-0.06	-0.29
21218	5.71	157.23	-29.54	0.14	-0.07	-0.23
21237	0.60	179.64	-32.35	0.19	-0.00	-0.14
21256	-11.03	204.16	-36.44	0.22	0.04	-0.04
21275	-25.42	230.58	-41.15	0.27	0.07	0.05
21294	-38.42	258.61	-45.00	0.28	0.03	0.14
21312	-42.60	271.85	-46.88	0.25	0.02	0.25
21331	-48.49	293.43	-51.27	0.21	0.04	0.32
21349	-54.17	304.66	-54.02	0.14	0.05	0.46
21368	-54.37	306.05	-52.47	0.07	-0.03	0.63
21386	-42.45	298.29	-49.01	0.05	-0.06	0.79
21405	-27.36	289.99	-46.52	0.06	-0.03	0.94
21425	-13.60	281.78	-47.10	0.07	-0.01	1.10
21443	-6.74	278.44	-47.33	0.08	-0.01	1.17
21463	5.48	272.40	-49.91	0.10	0.07	1.34
21480	4.50	268.22	-57.17	0.15	0.23	1.56
21499	-9.69	269.97	-64.16	0.22	0.25	1.76
21518	-21.22	278.26	-67.21	0.34	0.26	1.96
21536	-27.69	287.49	-68.63	0.53	0.40	2.22
21554	-48.90	319.82	-75.27	0.59	0.41	2.34
21572	-67.55	359.91	-80.40	0.55	0.26	2.50
21590	-68.28	386.25	-74.30	0.37	0.19	2.67
21610	-60.84	391.20	-62.52	0.23	0.18	2.78
21628	-48.55	378.92	-50.25	0.07	0.13	2.84
21646	-40.42	365.94	-41.21	-0.01	0.15	2.90
21665	-27.15	328.89	-18.19	-0.03	0.24	2.99
21683	-22.16	298.75	-6.99	0.08	0.30	3.03
21701	-25.67	280.96	-8.74	0.18	0.36	3.06
21721	-32.06	280.81	-8.51	0.40	0.35	3.05
21739	-31.36	303.70	-13.93	0.60	0.31	2.95
21757	-31.60	323.94	-17.27	0.72	0.37	2.85
21776	-43.91	380.25	-12.25	0.75	0.50	2.61
21794	-60.53	430.22	3.98	0.50	0.37	2.39
21813	-55.33	442.78	20.60	0.01	0.12	2.03
21830	-44.82	430.27	27.21	-0.33	0.02	1.58
21849	-20.34	380.04	36.45	-0.41	0.01	1.36
21867	0.69	320.62	39.11	-0.42	-0.00	1.04
21885	14.77	265.99	35.05	-0.40	0.02	0.88
21903	18.69	211.41	27.91	-0.46	0.08	0.79
21921	16.92	181.58	23.59	-0.49	0.09	0.76
21939	9.87	117.19	13.06	-0.51	0.10	0.69
21956	-0.58	52.73	1.63	-0.49	0.11	0.64
21974	-11.26	-7.54	-8.67	-0.48	0.09	0.61
21993	-15.53	-37.25	-12.57	-0.57	0.07	0.61
22012	-21.19	-103.88	-17.21	-0.63	0.04	0.62
22031	-19.55	-182.27	-18.17	-0.71	-0.02	0.64
22051	-11.90	-264.36	-19.64	-0.70	-0.03	0.64
22070	-4.35	-345.32	-18.48	-0.76	-0.01	0.71
22089	4.06	-432.45	-11.25	-0.78	0.03	0.90
22108	11.81	-500.00	6.18	-0.52	0.07	1.13
22127	18.97	-499.51	30.17	-0.07	0.06	1.55
22145	24.40	-500.00	41.96	0.23	0.07	1.82
22162	34.91	-497.28	55.94	0.83	0.15	2.37
22180	39.26	-408.28	52.99	1.08	0.27	2.76
22197	32.21	-304.64	38.99	1.01	0.39	2.85
22215	23.68	-258.56	31.07	0.88	0.41	2.82
22232	1.91	-194.89	16.22	0.46	0.43	2.82
22251	-17.59	-187.65	4.59	-0.02	0.33	2.88
22269	-22.74	-233.96	-3.23	-0.34	0.21	2.82
22288	-10.57	-299.85	-5.17	-0.19	0.06	2.59
22307	2.14	-322.80	-6.10	-0.01	0.01	2.46
22326	28.03	-337.45	-7.75	0.24	0.06	2.24
22344	43.84	-326.57	-4.85	0.33	0.14	2.09
22362	49.58	-306.09	-1.57	0.38	0.17	1.99
22382	47.10	-282.75	-1.43	0.35	0.23	1.87
22400	36.16	-265.53	4.35	0.23	0.23	1.73
22418	30.76	-262.31	9.80	0.17	0.22	1.67
22436	21.65	-265.84	19.76	0.06	0.19	1.55
22455	16.40	-280.87	27.91	0.00	0.13	1.36
22472	16.07	-296.40	36.91	0.02	0.08	1.12
22490	17.27	-301.61	41.82	0.05	0.06	1.01
22508	20.90	-301.97	50.16	0.15	0.02	0.78
22528	23.96	-291.26	54.14	0.16	0.02	0.63
22545	24.93	-280.47	55.42	0.09	0.02	0.55
22563	23.85	-274.77	57.02	0.08	0.03	0.45
22582	23.04	-270.84	58.29	0.11	0.02	0.39
22599	22.55	-254.79	58.38	0.19	-0.01	0.27
22617	22.32	-229.10	53.38	0.22	-0.01	0.19
22637	20.31	-202.09	43.67	0.19	0.00	0.13
22654	16.85	-178.36	33.74	0.15	-0.01	0.08
22674	15.26	-167.36	29.42	0.14	-0.02	-0.00
22692	12.01	-146.00	21.04	0.12	-0.02	-0.03
22711	8.67	-127.62	13.06	0.09	-0.02	-0.08
22731	4.49	-113.05	7.19	0.06	-0.03	-0.13
22749	0.90	-101.88	2.56	0.04	-0.03	-0.18
22769	-2.12	-91.60	-0.55	0.04	-0.04	-0.24
22788	-3.86	-79.97	-2.21	0.05	-0.06	-0.29
22808	-4.44	-67.96	-3.08	0.04	-0.07	-0.33
22828	-4.81	-56.43	-2.94	0.04	-0.08	-0.37
22849	-4.79	-45.81	-1.28	0.02	-0.08	-0.40
22869	-4.32	-35.87	1.75	0.03	-0.09	-0.43
22888	-4.15	-29.91	3.94	0.04	-0.09	-0.46
22907	-3.36	-17.30	9.06	0.04	-0.10	-0.49
22926	-1.66	-3.54	13.87	0.04	-0.10	-0.50
22946	0.84	9.90	16.37	0.03	-0.10	-0.52
22964	2.29	23.50	17.32	0.05	-0.09	-0.53
22982	2.44	38.50	17.59	0.06	-0.10	-0.53
23001	4.55	53.04	16.69	0.05	-0.12	-0.52
23019	5.84	59.74	15.59	0.05	-0.10	-0.49
23039	7.35	73.18	12.30	0.07	-0.08	-0.44
23057	7.63	87.54	8.54	0.07	-0.08	-0.42
23075	7.00	101.10	5.98	0.05	-0.09	-0.39
23094	6.73	110.98	4.00	0.03	-0.08	-0.33
23112	5.13	119.78	0.61	0.06	-0.06	-0.25
23131	3.68	124.80	-1.63	0.09	-0.05	-0.13
23150	1.46	136.06	-6.67	0.10	-0.05	-0.07
23170	-0.21	148.56	-12.16	0.11	-0.03	0.03
23189	-3.39	161.13	-18.26	0.14	0.01	0.13
23207	-8.48	176.50	-25.21	0.18	0.02	0.25
23225	-12.62	194.66	-31.77	0.21	0.01	0.36
23244	-14.27	212.95	-37.25	0.21	-0.00	0.47
23264	-13.93	230.04	-43.12	0.22	0.00	0.58
23282	-14.02	238.36	-46.59	0.22	0.01	0.63
23300	-14.39	253.88	-53.18	0.21	-0.00	0.76
23320	-9.28	263.44	-57.72	0.14	-0.05	0.91
23338	-1.16	266.30	-60.93	0.15	0.02	1.07
23358	-1.31	272.37	-63.25	0.22	0.11	1.21
23376	-2.88	284.67	-62.67	0.27	0.05	1.35
23394	-0.99	292.47	-61.80	0.28	0.06	1.42
23413	-1.88	309.81	-58.81	0.31	0.24	1.55
23431	-17.12	329.74	-51.83	0.36	0.29	1.71
23451	-29.36	352.01	-40.42	0.32	0.23	1.84
23469	-35.29	358.67	-28.26	0.11	0.26	2.02
23487	-38.56	352.78	-24.09	0.04	0.23	2.24
23506	-40.95	332.69	-19.82	0.04	0.17	2.34
23524	-28.85	308.72	-9.78	-0.06	0.10	2.44
23543	-10.44	274.28	1.71	-0.07	0.15	2.58
23562	3.74	249.76	-0.09	0.17	0.20	2.74
23580	7.29	251.75	-6.47	0.35	0.29	2.82
23598	4.47	259.67	-8.48	0.39	0.35	2.82
23616	-6.52	281.51	-15.53	0.44	0.32	2.79
23634	-8.74	305.19	-37.46	0.36	0.19	2.78
23653	-4.30	313.29	-65.40	0.15	0.20	2.76
23671	-1.48	295.15	-84.14	-0.04	0.23	2.75
23691	-4.96	269.26	-93.49	0.11	0.35	2.54
23709	-13.32	265.93	-93.77	0.25	0.41	2.40
23727	-39.63	281.83	-81.92	0.40	0.46	2.13
23745	-64.67	312.21	-55.51	0.40	0.34	1.93
23764	-71.35	338.35	-23.80	0.22	0.18	1.69
23782	-60.26	337.01	8.00	-0.14	0.03	1.44
23800	-49.07	321.69	22.14	-0.29	-0.04	1.33
23819	-20.60	271.18	45.03	-0.45	-0.08	1.13
23837	3.83	208.47	61.23	-0.49	-0.03	0.97
23855	19.06	144.52	68.07	-0.49	-0.00	0.86
23873	23.03	112.87	67.57	-0.46	0.06	0.76
23891	22.43	52.93	59.52	-0.45	0.09	0.73
23909	11.78	-4.87	45.27	-0.47	0.13	0.69
23927	-4.15	-67.38	29.28	-0.56	0.14	0.72
23945	-20.16	-142.68	15.20	-0.70	0.13	0.76
23965	-26.31	-185.90	9.49	-0.77	0.08	0.81
23983	-32.53	-277.63	0.43	-0.76	0.07	0.84
24002	-30.72	-364.17	-3.71	-0.64	0.04	0.97
24021	-22.16	-434.57	3.95	-0.46	0.04	1.17
24039	-8.76	-481.37	23.83	-0.18	0.04	1.52
24058	9.16	-490.16	42.95	0.30	0.03	1.93
24075	18.55	-475.14	49.10	0.52	0.07	2.14
24093	33.83	-419.57	53.97	0.72	0.18	2.61
24111	38.48	-350.83	46.42	0.90	0.34	2.78
24128	23.09	-266.85	25.79	0.91	0.47	2.73
24146	10.41	-228.21	15.18	0.73	0.48	2.76
24164	-13.29	-192.37	-1.85	0.15	0.42	2.89
24183	-26.81	-224.11	-18.22	-0.22	0.29	2.84
24202	-26.18	-278.29	-35.14	-0.10	0.17	2.59
24223	-13.20	-312.33	-45.75	0.04	0.07	2.36
24241	8.80	-326.17	-49.90	0.20	0.02	2.11
24259	20.86	-325.26	-50.38	0.30	0.04	1.93
24279	41.12	-313.13	-45.00	0.32	0.13	1.83
24297	51.15	-295.94	-27.34	0.29	0.14	1.78
24316	55.05	-282.99	-3.57	0.22	0.15	1.67
24334	53.39	-280.82	19.21	0.09	0.17	1.54
24352	47.70	-291.72	41.55	0.02	0.15	1.42
24371	43.93	-299.29	52.06	0.05	0.15	1.26
24389	34.59	-311.48	70.10	0.08	0.14	1.17
24406	25.67	-312.21	83.24	0.17	0.09	0.98
24425	21.93	-301.61	92.00	0.22	0.03	0.78
24443	22.46	-282.94	94.86	0.26	-0.01	0.61
24462	22.92	-271.68	93.78	0.24	-0.00	0.49
24480	22.54	-249.95	87.63	0.20	0.01	0.46
24498	19.06	-236.45	78.98	0.13	0.03	0.40
24517	13.43	-227.40	71.49	0.14	0.03	0.31
24534	8.90	-213.44	63.58	0.17	-0.00	0.20
24553	7.37	-205.02	58.38	0.16	-0.01	0.12
24572	4.12	-188.86	46.13	0.13	0.00	0.10
24590	-0.72	-178.22	34.52	0.08	0.01	0.06
24609	-5.23	-171.65	26.87	0.07	0.00	-0.00
24627	-8.36	-164.93	21.16	0.07	-0.01	-0.07
24647	-10.47	-156.49	15.44	0.08	-0.02	-0.14
24666	-11.80	-146.53	10.50	0.07	-0.04	-0.21
24686	-11.83	-141.56	8.73	0.05	-0.05	-0.27
24706	-10.91	-132.75	6.38	0.05	-0.05	-0.32
24725	-9.52	-122.89	4.38	0.07	-0.06	-0.34
24745	-7.60	-109.41	2.61	0.07	-0.07	-0.39
24764	-4.49	-94.53	2.69	0.07	-0.10	-0.43
24784	0.69	-79.24	2.84	0.07	-0.11	-0.48
24803	5.83	-62.82	1.45	0.06	-0.11	-0.53
24821	10.12	-46.78	-0.79	0.02	-0.11	-0.58
24841	13.85	-35.43	-2.29	-0.02	-0.11	-0.62
24860	16.56	-26.78	-3.20	-0.02	-0.11	-0.64
24882	18.92	-15.06	-4.61	0.02	-0.13	-0.66
24900	21.96	0.98	-5.92	0.04	-0.13	-0.65
24920	23.21	9.92	-6.33	0.05	-0.12	-0.65
24939	23.77	29.25	-7.05	0.08	-0.10	-0.62
24957	22.58	52.00	-7.63	0.11	-0.10	-0.60
24977	21.77	76.48	-8.53	0.12	-0.11	-0.58
24996	20.72	99.15	-9.11	0.10	-0.10	-0.54
25015	18.83	118.55	-9.14	0.09	-0.11	-0.51
25034	17.07	137.27	-9.80	0.14	-0.09	-0.46
25052	12.24	158.89	-11.25	0.17	-0.05	-0.37
25071	9.00	170.15	-12.18	0.17	-0.03	-0.32
25089	1.39	190.77	-13.92	0.16	-0.02	-0.25
25108	-7.48	208.36	-15.98	0.17	0.01	-0.15
25127	-16.05	226.27	-18.51	0.19	0.01	-0.05
25145	-21.96	241.88	-22.06	0.16	-0.00	0.06
25164	-23.86	247.42	-24.37	0.12	0.01	0.21
25182	-25.85	253.31	-29.36	0.12	0.01	0.28
25202	-23.16	258.27	-32.21	0.14	-0.04	0.39
25221	-12.36	262.45	-33.83	0.11	-0.07	0.48
25240	-0.79	262.39	-35.58	0.10	-0.01	0.59
25258	6.35	259.80	-39.17	0.07	0.00	0.73
25276	14.60	252.94	-43.84	0.06	-0.01	0.86
25295	18.89	249.53	-46.66	0.08	0.05	0.97
25313	23.12	244.86	-54.60	0.09	0.07	1.02
25332	20.84	241.61	-65.28	0.12	0.12	1.16
25349	14.37	244.23	-73.09	0.24	0.17	1.26
25367	9.02	250.85	-76.68	0.38	0.25	1.43
25385	-6.71	275.01	-85.42	0.41	0.25	1.53
25404	-19.15	302.99	-91.96	0.37	0.15	1.72
25423	-20.22	322.46	-94.44	0.31	0.15	1.88
25441	-23.01	331.02	-92.09	0.19	0.24	2.00
25459	-27.28	326.31	-81.05	0.10	0.19	2.07
25478	-26.12	319.87	-70.77	0.01	0.15	2.13
25496	-17.90	290.80	-42.01	-0.17	0.21	2.33
25516	-14.40	249.56	-17.11	-0.06	0.32	2.51
25534	-21.35	232.13	-1.27	0.29	0.34	2.64
25552	-25.54	248.72	11.61	0.42	0.29	2.77
25571	-23.83	268.89	14.76	0.33	0.29	2.85
25589	-23.09	274.02	10.33	0.29	0.26	2.83
25608	-21.19	278.41	-3.83	0.24	0.23	2.75
25626	-17.21	274.98	-12.44	0.11	0.23	2.66
25644	-9.40	258.70	-13.93	0.02	0.20	2.56
25663	0.93	236.76	-20.31	0.00	0.18	2.41
25680	4.81	227.08	-26.64	0.03	0.19	2.31
25699	5.22	217.68	-41.41	0.16	0.29	2.14
25717	-6.45	221.77	-53.13	0.19	0.35	1.96
25735	-24.09	232.35	-60.21	0.24	0.31	1.73
25754	-37.51	249.71	-62.82	0.24	0.21	1.48
25772	-40.71	257.80	-61.81	0.16	0.16	1.37
25791	-39.44	258.16	-54.38	-0.12	0.07	1.22
25810	-29.63	227.54	-39.63	-0.33	0.02	1.07
25829	-18.19	182.37	-22.67	-0.36	0.01	0.89
25848	-7.66	137.48	-8.42	-0.37	-0.00	0.76
25867	0.90	94.12	4.50	-0.34	-0.00	0.65
25885	4.41	74.33	10.33	-0.28	0.00	0.58
25902	9.67	40.28	19.33	-0.28	-0.01	0.53
25920	13.47	8.54	23.71	-0.29	0.00	0.48
25939	13.85	-23.73	25.68	-0.29	0.01	0.44
25957	12.85	-56.73	26.99	-0.33	0.03	0.44
25975	11.26	-75.16	28.55	-0.37	0.04	0.44
25993	7.22	-117.23	33.36	-0.41	0.04	0.46
26011	3.86	-160.51	37.06	-0.38	0.03	0.45
26029	2.00	-198.00	38.10	-0.32	0.01	0.47
26047	1.65	-213.96	38.12	-0.26	0.01	0.51
26065	1.39	-239.59	38.50	-0.22	0.01	0.54
26083	3.63	-256.90	37.90	-0.16	-0.01	0.60
26102	8.44	-267.43	35.37	-0.09	-0.00	0.70
26120	11.47	-274.84	33.57	-0.10	0.06	0.86
26138	11.95	-280.41	33.94	-0.09	0.07	0.96
26157	13.72	-288.93	32.73	0.05	0.10	1.12
26175	11.76	-278.03	26.20	0.28	0.13	1.23
26192	6.64	-243.67	14.43	0.40	0.18	1.32
26211	2.58	-223.19	8.41	0.37	0.18	1.36
26228	-5.86	-186.17	-3.01	0.35	0.15	1.35
26247	-11.20	-155.50	-14.76	0.27	0.14	1.35
26265	-14.68	-136.15	-23.74	0.16	0.14	1.45
26284	-13.87	-134.69	-27.73	0.00	0.12	1.54
26302	-12.22	-140.99	-27.73	-0.05	0.07	1.49
26321	-6.45	-158.04	-25.57	-0.04	0.07	1.45
26340	-0.29	-173.69	-20.03	-0.02	0.09	1.46
26360	7.49	-186.55	-11.34	-0.01	0.07	1.49
26378	17.35	-195.88	-0.78	0.05	0.04	1.43
26396	24.32	-196.69	7.95	0.10	0.09	1.39
26415	26.86	-190.08	16.05	0.18	0.12	1.46
26434	27.42	-183.46	19.52	0.23	0.11	1.37
26451	27.50	-165.30	24.20	0.25	0.10	1.30
26470	24.90	-139.80	23.32	0.30	0.12	1.19
26488	17.21	-111.77	19.67	0.26	0.17	1.22
26505	12.76	-99.73	18.59	0.24	0.13	1.19
26525	7.14	-78.70	14.68	0.22	0.11	1.14
26542	4.75	-61.04	7.86	0.22	0.09	1.06
26560	1.62	-45.58	0.56	0.14	0.12	1.06
26579	-0.61	-39.03	-3.86	0.11	0.08	1.05
26597	-0.26	-35.87	-8.47	0.09	0.06	0.97
26617	0.06	-34.52	-10.60	0.11	0.06	0.91
26636	0.98	-29.86	-14.98	0.11	0.06	0.89
26655	2.04	-25.12	-16.51	0.09	0.05	0.84
26673	2.32	-20.26	-16.97	0.11	0.07	0.80
26691	1.05	-12.19	-17.47	0.14	0.06	0.76
26710	-0.32	-0.47	-18.43	0.16	0.06	0.74
26729	-0.75	6.45	-18.75	0.15	0.05	0.73
26747	-1.30	19.45	-18.49	0.15	0.05	0.72
26766	-1.57	32.07	-17.04	0.17	0.06	0.73
26784	-2.59	46.26	-15.20	0.19	0.08	0.74
26803	-5.05	63.37	-12.99	0.23	0.09	0.77
26821	-7.86	82.57	-10.48	0.23	0.09	0.80
26839	-9.45	92.00	-9.32	0.23	0.09	0.82
26858	-13.09	109.70	-6.81	0.24	0.11	0.89
26876	-17.09	125.96	-4.94	0.23	0.11	0.95
26895	-20.23	139.91	-2.84	0.21	0.10	0.98