Time	Gx	Gy	Gz	Ax	Ay	Az
9740	10.25	177.25	37.22	0.64	0.01	1.00
9758	11.51	235.17	40.33	0.54	0.03	1.12
9775	9.80	285.29	40.45	0.64	0.07	1.28
9792	7.98	314.04	39.69	0.67	0.07	1.38
9810	4.97	370.70	37.48	0.55	0.07	1.54
9828	4.12	409.32	31.77	0.44	0.02	1.68
9845	6.26	423.57	27.10	0.33	0.01	1.90
9863	11.26	442.21	14.27	0.16	0.01	2.02
9880	12.71	424.21	-3.30	-0.12	0.03	2.24
9897	12.82	388.44	-24.44	-0.07	0.02	2.46
9916	13.26	354.29	-40.41	-0.27	0.01	2.59
9935	13.23	327.82	-47.62	-0.38	0.05	2.59
9954	8.16	265.15	-65.40	-0.32	0.07	2.53
9971	1.57	222.79	-78.22	-0.07	0.10	2.38
9989	-7.34	206.27	-79.15	0.01	0.11	2.22
10007	-17.90	202.12	-76.60	0.14	0.08	2.07
10025	-22.55	207.93	-74.26	0.24	0.09	1.97
10045	-32.90	236.80	-63.64	0.29	0.10	1.76
10063	-42.50	266.22	-52.37	0.15	0.06	1.55
10082	-47.06	280.76	-46.04	0.09	0.01	1.40
10100	-48.14	294.95	-36.44	0.10	0.01	1.26
10118	-47.55	302.09	-29.40	0.02	-0.03	1.21
10138	-42.89	302.08	-13.38	-0.19	-0.05	1.11
10156	-36.97	280.99	2.96	-0.28	-0.06	0.98
10176	-29.33	255.31	19.70	-0.29	-0.08	0.79
10194	-20.05	228.41	32.68	-0.30	-0.10	0.61
10212	-11.06	202.93	42.88	-0.29	-0.07	0.48
10232	-5.94	177.72	51.38	-0.26	-0.07	0.43
10251	-2.75	166.23	54.82	-0.17	-0.10	0.32
10270	6.99	151.35	55.48	-0.12	-0.09	0.27
10288	14.94	150.77	44.72	-0.01	-0.08	0.19
10307	20.87	158.52	26.67	-0.03	-0.06	0.11
10325	22.71	157.68	9.60	-0.09	-0.06	0.02
10343	21.68	155.43	-1.14	-0.03	-0.04	-0.06
10363	19.32	157.33	-4.27	-0.03	-0.00	-0.14
10382	10.96	160.69	-9.03	-0.04	-0.00	-0.16
10401	2.79	159.03	-15.72	-0.08	-0.04	-0.19
10420	-2.32	150.59	-20.83	-0.09	-0.06	-0.22
10439	-6.01	140.29	-20.57	-0.09	-0.05	-0.25
10460	-10.04	123.98	-18.02	-0.16	-0.06	-0.28
10479	-11.25	98.14	-15.91	-0.18	-0.08	-0.31
10499	-10.39	71.81	-12.59	-0.16	-0.07	-0.36
10518	-10.93	48.46	-7.34	-0.15	-0.05	-0.39
10537	-11.12	24.93	-2.87	-0.15	-0.09	-0.41
10558	-6.99	2.88	-0.78	-0.11	-0.10	-0.42
10577	-1.79	-11.34	1.51	-0.07	-0.08	-0.43
10597	1.24	-23.77	2.12	-0.11	-0.07	-0.40
10616	2.40	-31.52	1.19	-0.11	-0.08	-0.34
10636	5.48	-48.22	-1.51	-0.11	-0.08	-0.31
10656	8.33	-60.17	-2.29	-0.05	-0.07	-0.27
10676	10.99	-64.80	-1.30	-0.04	-0.07	-0.22
10695	14.72	-69.76	-2.43	-0.07	-0.08	-0.14
10714	18.69	-78.67	-5.57	-0.08	-0.06	-0.05
10734	18.60	-89.05	-10.48	-0.11	-0.01	0.06
10753	15.53	-103.64	-17.70	-0.16	-0.03	0.15
10773	15.76	-123.98	-23.76	-0.20	-0.05	0.27
10792	16.08	-147.80	-24.19	-0.22	-0.00	0.37
10812	14.27	-174.00	-21.93	-0.26	-0.02	0.48
10831	15.26	-188.49	-22.28	-0.33	-0.07	0.60
10849	21.97	-222.70	-23.51	-0.34	-0.05	0.65
10870	23.61	-259.34	-18.75	-0.35	0.02	0.68
10888	23.16	-293.73	-12.18	-0.32	-0.06	0.76
10908	29.50	-321.75	-8.51	-0.27	-0.08	0.84
10927	34.85	-343.00	-2.32	-0.18	-0.02	0.91
10946	35.60	-353.26	8.01	-0.13	-0.06	1.04
10965	40.63	-358.66	13.67	-0.05	-0.08	1.23
10984	41.85	-352.98	22.14	0.11	0.03	1.45
11002	38.47	-343.84	28.14	0.16	0.05	1.54
11019	31.16	-321.06	34.36	0.22	-0.04	1.71
11038	33.55	-295.81	32.67	0.27	-0.01	1.95
11057	30.43	-266.02	39.12	0.33	0.06	2.21
11075	25.85	-237.53	39.84	0.31	-0.02	2.44
11094	27.07	-226.43	30.62	0.05	-0.04	2.63
11112	31.10	-228.32	13.69	-0.13	0.07	2.73
11130	22.64	-268.57	16.75	-0.29	0.07	2.83
11148	20.34	-312.53	12.30	-0.06	-0.02	2.93
11167	28.06	-330.64	-8.30	0.04	0.04	2.97
11186	28.29	-336.33	-13.14	0.12	0.18	2.91
11204	17.91	-340.73	-6.20	0.25	0.13	2.83
11221	14.89	-319.53	0.38	0.40	-0.02	2.68
11241	21.91	-294.57	-4.12	0.24	-0.01	2.55
11259	30.75	-293.55	-8.79	-0.06	-0.06	2.48
11280	42.37	-327.10	-4.90	-0.26	-0.04	2.35
11298	47.32	-372.31	1.50	-0.25	0.12	2.19
11317	43.11	-391.62	8.21	0.07	0.06	1.95
11335	36.80	-401.00	28.58	0.31	0.03	1.80
11352	34.04	-358.05	50.49	0.61	-0.01	1.52
11372	34.03	-294.14	65.77	0.55	-0.07	1.20
11390	36.42	-243.35	71.11	0.42	-0.05	0.93
11408	35.93	-223.11	70.37	0.38	-0.03	0.84
11427	31.66	-191.12	63.83	0.29	0.01	0.69
11444	25.59	-162.80	51.35	0.34	-0.01	0.60
11462	24.05	-122.38	32.10	0.52	-0.03	0.56
11481	24.02	-93.67	20.63	0.67	0.01	0.54
11498	21.84	-22.78	-3.14	0.70	0.02	0.53
11516	19.62	54.50	-23.12	0.73	-0.02	0.50
11534	19.67	135.57	-35.00	0.78	-0.03	0.48
11552	20.16	177.58	-36.83	0.83	-0.03	0.46
11570	20.20	263.98	-35.42	0.86	-0.01	0.48
11588	15.81	354.68	-32.58	0.88	0.05	0.54
11606	8.59	442.37	-24.80	0.85	0.08	0.70
11623	4.70	483.52	-17.38	0.86	0.09	0.97
11640	-1.94	499.98	-1.97	0.74	0.09	1.15
11658	-8.13	499.98	3.56	0.21	0.10	1.65
11678	-12.65	499.98	1.89	-0.36	0.06	2.27
11696	-13.40	491.94	-9.48	-0.73	-0.03	2.83
11715	-4.94	367.69	-39.28	-0.99	-0.09	3.04
11735	1.89	297.07	-55.07	-0.74	-0.10	2.95
11753	17.03	179.40	-75.65	-0.45	-0.04	2.88
11773	18.55	131.03	-85.92	0.14	0.12	2.78
11791	2.06	150.01	-88.32	0.54	0.24	2.67
11808	-25.04	208.01	-74.16	0.68	0.27	2.50
11827	-50.46	276.40	-52.17	0.57	0.19	2.25
11845	-58.93	304.67	-42.74	0.44	0.14	2.13
11863	-65.31	339.86	-29.51	0.23	0.04	1.98
11882	-56.08	351.35	-20.83	0.07	-0.05	1.87
11901	-39.17	347.61	-9.81	-0.05	-0.04	1.76
11921	-26.25	329.18	1.68	-0.21	-0.03	1.62
11939	-14.36	296.52	9.45	-0.22	-0.03	1.45
11958	-9.29	281.36	11.83	-0.09	0.01	1.29
11977	-4.18	263.32	13.78	-0.05	0.02	1.19
11995	-4.87	254.44	17.26	-0.07	0.03	0.98
12014	-5.31	242.39	20.42	-0.09	-0.01	0.76
12032	-3.30	232.70	20.55	-0.00	-0.04	0.59
12051	-1.13	235.66	18.33	0.08	-0.04	0.46
12069	-1.19	239.93	16.37	0.07	-0.03	0.39
12089	-3.33	243.88	10.97	0.00	-0.03	0.29
12107	-5.36	239.06	4.78	-0.06	-0.06	0.20
12125	-4.18	227.49	0.09	-0.08	-0.09	0.13
12145	0.40	213.64	-0.96	-0.09	-0.10	0.06
12163	4.87	195.74	2.79	-0.14	-0.09	-0.01
12183	6.70	183.96	6.20	-0.15	-0.10	-0.02
12202	9.41	159.53	12.08	-0.14	-0.05	-0.04
12220	7.71	136.25	14.74	-0.16	-0.05	-0.07
12239	6.12	107.18	17.15	-0.19	-0.06	-0.14
12258	6.52	74.48	19.18	-0.19	-0.06	-0.21
12277	6.81	48.42	18.28	-0.12	-0.07	-0.26
12296	6.00	31.16	14.22	-0.09	-0.07	-0.31
12314	5.43	23.80	11.98	-0.12	-0.07	-0.35
12334	5.11	6.88	9.84	-0.11	-0.07	-0.39
12352	4.27	-8.94	9.14	-0.08	-0.06	-0.41
12372	2.53	-17.20	6.77	-0.04	-0.06	-0.42
12391	1.11	-22.63	2.43	-0.07	-0.06	-0.43
12410	-0.21	-31.48	-0.55	-0.09	-0.06	-0.42
12431	-2.03	-39.18	-0.75	-0.05	-0.05	-0.39
12451	-4.78	-42.83	-0.76	-0.05	-0.04	-0.35
12471	-7.13	-46.28	-3.42	-0.07	-0.04	-0.31
12491	-7.58	-55.45	-6.61	-0.08	-0.05	-0.27
12512	-7.06	-64.83	-7.75	-0.07	-0.04	-0.20
12532	-7.06	-72.25	-8.38	-0.07	-0.04	-0.12
12552	-5.55	-81.67	-10.38	-0.10	-0.04	-0.02
12572	-2.78	-95.90	-12.07	-0.15	-0.03	0.08
12591	-1.68	-115.94	-11.58	-0.19	-0.00	0.17
12611	-1.19	-139.27	-11.99	-0.22	-0.02	0.27
12630	2.85	-166.15	-13.95	-0.25	-0.04	0.37
12650	8.65	-194.73	-14.98	-0.25	-0.00	0.45
12669	10.21	-208.98	-14.50	-0.25	0.02	0.50
12688	10.77	-237.20	-14.53	-0.25	0.03	0.63
12707	12.77	-262.86	-18.80	-0.22	-0.01	0.71
12726	18.11	-283.31	-22.25	-0.15	0.00	0.79
12745	18.97	-295.76	-22.93	-0.13	0.04	0.90
12763	18.40	-306.30	-23.54	-0.08	0.02	1.04
12783	21.80	-307.77	-23.73	0.09	0.02	1.19
12801	22.66	-301.47	-21.19	0.09	0.07	1.34
12820	20.83	-289.34	-13.00	0.05	0.05	1.42
12838	22.06	-283.14	-6.93	0.18	0.01	1.63
12856	24.93	-264.33	-0.98	0.23	0.05	1.84
12875	23.70	-251.40	8.68	0.02	0.03	2.05
12892	25.80	-255.83	11.60	-0.05	-0.01	2.15
12911	35.10	-273.74	11.29	0.02	-0.04	2.33
12929	41.00	-281.68	10.65	0.07	0.04	2.59
12947	43.56	-297.16	9.00	-0.16	0.04	2.68
12965	45.52	-314.47	6.48	-0.01	0.11	2.69
12982	43.79	-337.80	1.36	0.16	0.12	2.73
13000	39.06	-327.18	-4.27	0.30	0.11	2.80
13018	37.90	-313.66	-9.45	0.19	0.06	2.75
13036	44.02	-309.84	-9.38	0.21	0.06	2.75
13054	46.17	-306.53	-8.07	0.25	0.10	2.74
13072	43.88	-295.00	-3.48	0.26	0.14	2.69
13090	38.30	-286.48	5.57	0.19	0.14	2.61
13110	32.99	-286.25	16.17	0.08	0.05	2.49
13128	39.99	-302.70	34.04	-0.14	-0.03	2.27
13146	45.78	-319.09	45.53	-0.15	-0.08	2.12
13165	58.23	-349.82	68.73	-0.07	-0.07	1.81
13184	59.31	-365.22	90.26	0.14	0.03	1.55
13201	45.14	-351.44	105.16	0.40	0.08	1.31
13220	25.51	-307.40	109.62	0.57	0.06	1.07
13237	16.57	-278.72	107.09	0.59	0.04	0.97
13255	4.20	-219.57	92.03	0.56	-0.00	0.81
13273	-0.76	-165.68	66.39	0.47	-0.05	0.70
13292	2.12	-123.14	38.47	0.37	-0.08	0.61
13311	4.85	-105.68	25.77	0.33	-0.07	0.56
13329	10.83	-72.88	2.69	0.34	-0.07	0.55
13346	16.08	-35.32	-18.08	0.46	-0.05	0.55
13366	18.34	20.10	-36.42	0.69	-0.01	0.58
13383	16.36	99.90	-49.61	0.82	0.01	0.60
13402	14.45	144.01	-52.25	0.81	0.01	0.59
13419	10.44	231.00	-51.09	0.82	0.02	0.58
13438	5.75	317.54	-46.39	0.84	0.02	0.60
13456	2.62	404.69	-34.23	0.88	0.01	0.72
13474	-1.27	491.09	-19.79	0.84	0.07	0.94
13491	-4.38	499.98	-13.87	0.75	0.09	1.10
13510	-10.31	499.73	-3.68	0.32	0.12	1.52
13528	-15.40	499.98	4.03	-0.26	0.12	2.16
13547	-21.22	496.58	-1.21	-0.80	0.07	2.77
13566	-16.88	379.85	-19.18	-1.01	-0.04	3.08
13584	-10.64	310.00	-27.79	-0.79	-0.09	3.04
13604	5.84	190.92	-44.37	-0.54	-0.06	3.00
13623	16.92	133.22	-60.01	0.12	0.03	2.94
13641	15.01	159.44	-65.26	0.71	0.15	2.83
13659	0.78	234.50	-59.34	0.67	0.18	2.57
13676	-7.86	267.82	-53.45	0.51	0.21	2.42
13695	-27.08	320.05	-38.18	0.47	0.22	2.35
13713	-45.04	358.73	-25.60	0.27	0.18	2.20
13732	-53.39	370.47	-22.95	0.00	0.02	2.11
13750	-42.28	351.81	-20.81	-0.21	-0.09	2.02
13769	-24.58	313.86	-11.17	-0.27	-0.03	1.92
13789	-12.73	276.99	-3.02	-0.18	-0.01	1.77
13808	-8.26	262.88	-1.88	-0.12	-0.01	1.51
13828	-1.25	240.98	-4.07	-0.02	0.02	1.27
13846	1.19	231.40	-7.11	0.02	0.04	1.16
13864	-3.57	232.79	-6.99	0.03	0.07	0.94
13883	-12.31	232.83	-4.24	-0.02	0.06	0.76
13901	-19.44	228.36	1.21	-0.04	0.02	0.62
13920	-21.19	225.46	4.20	-0.04	-0.04	0.50
13939	-19.38	219.79	8.87	-0.05	-0.06	0.45
13958	-12.89	212.83	10.01	-0.04	-0.08	0.37
13977	-5.83	207.60	11.63	-0.03	-0.06	0.28
13995	-1.88	201.25	14.94	-0.06	-0.05	0.18
14015	0.70	191.59	16.11	-0.08	-0.06	0.11
14033	4.33	178.10	15.05	-0.12	-0.09	0.04
14052	7.13	169.78	14.94	-0.11	-0.09	-0.01
14070	11.47	153.29	17.21	-0.11	-0.06	-0.04
14088	10.73	137.25	20.11	-0.14	-0.03	-0.10
14108	7.39	116.81	19.29	-0.17	-0.04	-0.16
14126	5.04	93.41	15.01	-0.14	-0.05	-0.20
14146	0.89	75.47	9.38	-0.12	-0.03	-0.27
14164	-4.33	60.47	4.10	-0.13	-0.04	-0.34
14183	-6.39	51.57	1.51	-0.15	-0.04	-0.37
14203	-8.77	33.39	-4.35	-0.12	-0.06	-0.42
14222	-8.22	21.74	-9.19	-0.10	-0.06	-0.44
14243	-7.43	11.89	-12.62	-0.09	-0.05	-0.48
14262	-6.91	3.27	-12.92	-0.09	-0.05	-0.48
14283	-5.94	-4.27	-11.15	-0.08	-0.05	-0.47
14302	-2.82	-10.71	-10.93	-0.07	-0.06	-0.46
14322	0.60	-15.66	-11.43	-0.06	-0.05	-0.44
14343	2.32	-19.03	-9.14	-0.07	-0.04	-0.42
14362	3.56	-25.83	-6.38	-0.07	-0.04	-0.37
14382	6.21	-35.11	-3.81	-0.08	-0.05	-0.32
14401	9.37	-44.57	-1.27	-0.06	-0.04	-0.27
14422	10.89	-52.31	1.82	-0.07	-0.04	-0.21
14441	12.22	-63.23	4.36	-0.10	-0.03	-0.13
14460	14.22	-77.65	6.71	-0.09	-0.03	-0.05
14480	15.30	-90.32	9.37	-0.10	-0.02	0.06
14498	15.34	-96.44	10.99	-0.13	-0.02	0.11
14517	15.58	-117.63	13.53	-0.21	-0.01	0.20
14535	15.34	-145.98	15.06	-0.25	-0.01	0.31
14554	14.45	-176.35	17.70	-0.26	0.02	0.42
14573	10.18	-207.72	20.69	-0.28	0.06	0.53
14591	5.04	-240.72	19.32	-0.29	0.03	0.63
14610	3.80	-257.48	16.95	-0.29	0.02	0.69
14628	1.86	-287.98	12.86	-0.23	0.07	0.81
14646	-5.13	-310.96	9.41	-0.19	0.07	0.91
14666	-6.01	-328.55	1.40	-0.11	-0.03	1.03
14685	-0.63	-335.65	-6.26	-0.01	0.04	1.18
14704	-1.10	-333.34	-8.88	0.05	0.05	1.33
14722	-0.78	-330.12	-10.53	0.10	-0.06	1.49
14742	8.54	-321.95	-16.80	0.16	-0.07	1.59
14761	18.11	-305.37	-17.90	0.19	0.05	1.79
14779	17.72	-291.79	-12.07	0.13	0.04	2.01
14798	21.18	-287.73	-11.95	0.16	-0.00	2.18
14816	24.48	-278.21	-9.75	0.22	0.11	2.36
14834	22.14	-272.87	-5.46	0.03	0.04	2.53
14854	22.32	-279.62	2.79	-0.05	-0.01	2.57
14872	29.77	-302.47	7.08	-0.02	0.06	2.66
14891	28.84	-316.01	19.71	0.07	0.17	2.88
14908	20.81	-324.31	38.01	0.07	0.13	2.98
14926	18.45	-328.29	44.53	0.18	0.11	2.91
14944	17.38	-327.48	47.99	0.25	0.08	2.88
14962	19.59	-313.45	49.51	0.29	0.10	2.86
14980	16.27	-299.16	47.85	0.26	0.16	2.82
14997	12.30	-293.88	43.59	0.14	0.20	2.76
15015	-0.09	-292.33	27.05	-0.04	0.27	2.72
15034	-22.86	-325.38	-3.16	-0.29	0.26	2.53
15053	-35.16	-376.46	-34.82	-0.22	0.03	2.33
15074	-14.19	-404.43	-54.63	0.12	-0.22	2.02
15093	26.66	-388.44	-54.67	0.42	-0.29	1.65
15111	63.42	-341.75	-38.35	0.53	-0.15	1.28
15130	74.86	-285.86	-12.76	0.56	0.05	1.01
15148	70.56	-256.91	1.16	0.55	0.11	0.90
15167	51.04	-204.16	27.95	0.45	0.15	0.75
15185	27.04	-162.40	50.03	0.38	0.14	0.66
15202	8.85	-127.30	64.01	0.40	0.07	0.60
15221	3.13	-104.48	67.75	0.47	-0.01	0.57
15239	0.44	-55.36	67.25	0.53	-0.03	0.57
15257	5.17	4.18	56.79	0.66	-0.07	0.56
15275	14.22	78.28	38.64	0.77	-0.07	0.56
15293	24.73	160.34	18.40	0.80	-0.09	0.56
15311	30.50	201.95	9.35	0.82	-0.08	0.56
15329	40.37	288.28	-6.59	0.86	-0.05	0.59
15347	46.54	375.35	-19.07	0.86	-0.01	0.69
15366	46.40	460.08	-22.00	0.82	0.13	0.84
15383	40.63	496.09	-21.15	0.71	0.24	1.09
15402	19.85	499.63	-17.62	0.60	0.25	1.27
15419	-2.17	499.98	-12.62	0.18	0.24	1.81
15437	-20.57	499.98	-5.25	-0.36	0.20	2.43
15456	-27.21	489.04	-8.79	-0.84	0.04	2.99
15475	-23.32	430.62	-17.21	-1.05	-0.14	3.16
15495	0.03	284.90	-38.42	-0.79	-0.13	2.99
15513	25.77	165.19	-55.47	-0.49	-0.06	2.94
15532	37.32	118.12	-67.86	0.28	0.07	2.92
15550	32.26	163.93	-72.89	0.88	0.20	2.81
15568	10.71	256.45	-64.93	0.78	0.29	2.51
15587	-3.25	296.08	-57.16	0.52	0.27	2.26
15604	-27.85	351.67	-42.63	0.41	0.23	2.15
15623	-43.43	381.41	-37.09	0.25	0.13	1.99
15642	-45.46	394.82	-39.03	0.13	-0.00	1.90
15660	-33.13	391.28	-36.56	-0.08	-0.09	1.79
15681	-15.79	360.28	-30.50	-0.30	-0.08	1.67
15699	-3.27	310.88	-25.34	-0.30	-0.02	1.55
15719	2.64	269.21	-18.89	-0.15	0.00	1.40
15737	4.21	255.80	-14.69	-0.08	0.02	1.30
15755	2.49	241.53	-5.94	-0.03	0.06	1.04
15774	-4.17	230.47	1.31	-0.06	0.04	0.81
15792	-9.52	218.93	6.81	-0.05	0.01	0.64
15811	-12.91	212.52	10.41	0.02	0.00	0.53
15828	-14.34	213.07	11.37	0.05	-0.00	0.48
15846	-16.53	217.61	13.03	0.05	-0.02	0.35
15865	-16.82	219.59	14.68	0.00	-0.04	0.23
15884	-15.72	215.24	15.43	-0.05	-0.06	0.14
15903	-12.56	204.28	13.02	-0.09	-0.08	0.08
15922	-9.40	197.14	11.20	-0.11	-0.14	0.02
15940	0.85	180.27	10.03	-0.11	-0.14	-0.02
15959	10.71	161.10	11.41	-0.14	-0.08	-0.10
15978	14.76	137.86	13.08	-0.16	-0.06	-0.14
15997	16.08	113.82	13.46	-0.14	-0.05	-0.17
16015	13.90	92.06	13.20	-0.15	-0.04	-0.24
16035	12.48	80.96	12.70	-0.14	-0.04	-0.28
16053	8.19	60.15	10.56	-0.15	-0.04	-0.29
16071	3.27	40.24	7.98	-0.14	-0.04	-0.34
16091	-1.25	22.16	4.62	-0.12	-0.04	-0.40
16110	-4.94	6.55	0.20	-0.12	-0.05	-0.44
16130	-8.03	-7.74	-3.74	-0.13	-0.05	-0.46
16149	-10.16	-22.03	-6.96	-0.12	-0.06	-0.49
16169	-11.12	-32.90	-9.92	-0.08	-0.06	-0.50
16191	-11.69	-38.42	-12.94	-0.08	-0.05	-0.49
16211	-11.31	-44.34	-13.37	-0.10	-0.06	-0.47
16231	-9.67	-52.05	-10.53	-0.10	-0.06	-0.45
16251	-7.45	-58.50	-7.45	-0.09	-0.06	-0.41
16271	-4.33	-63.95	-5.43	-0.09	-0.06	-0.34
16292	-0.92	-71.70	-3.33	-0.12	-0.06	-0.29
16312	1.79	-82.70	-0.73	-0.12	-0.05	-0.23
16332	4.68	-94.15	1.66	-0.11	-0.05	-0.16
16351	7.32	-103.82	3.19	-0.12	-0.04	-0.09
16371	8.87	-117.11	4.36	-0.15	-0.03	0.00
16390	8.88	-133.44	5.08	-0.16	-0.01	0.08
16408	8.54	-142.23	4.70	-0.16	-0.01	0.12
16428	8.15	-159.58	2.17	-0.17	-0.02	0.21
16446	7.83	-179.50	0.84	-0.20	0.01	0.29
16464	4.87	-201.87	2.15	-0.20	0.03	0.42
16483	2.18	-222.89	2.64	-0.16	0.02	0.55
16501	1.16	-231.66	1.37	-0.13	0.04	0.68
16520	-0.84	-246.69	-1.30	-0.13	0.05	0.74
16538	-2.82	-260.76	-3.01	-0.12	0.05	0.88
16558	-1.02	-273.99	-7.13	-0.09	-0.02	1.03
16577	5.42	-283.34	-13.26	-0.04	-0.01	1.20
16596	10.76	-290.13	-18.69	-0.03	0.02	1.37
16616	14.40	-295.93	-23.86	-0.01	-0.01	1.53
16634	21.04	-300.77	-27.71	0.05	-0.01	1.69
16654	23.77	-300.13	-26.69	0.07	0.08	1.86
16671	22.13	-296.52	-13.93	0.04	0.09	1.96
16690	17.91	-299.71	6.39	0.04	0.03	2.17
16708	18.72	-300.69	24.06	0.12	0.02	2.32
16726	17.97	-296.84	45.55	0.06	0.05	2.48
16744	17.41	-298.86	56.12	0.00	0.03	2.54
16762	18.81	-312.59	68.02	0.02	-0.02	2.61
16780	22.34	-315.67	62.67	0.22	0.03	2.71
16799	18.59	-305.05	51.47	0.14	0.10	2.81
16816	15.76	-304.78	43.79	0.02	0.14	2.82
16835	8.68	-316.48	24.69	0.10	0.17	2.83
16852	-0.75	-309.86	4.53	0.38	0.16	2.80
16870	-6.90	-277.01	-11.37	0.42	0.11	2.68
16889	-10.53	-250.09	-23.38	0.27	0.10	2.51
16908	-12.05	-243.62	-33.25	0.11	0.05	2.37
16928	-10.44	-246.92	-35.93	-0.03	-0.00	2.28
16947	-2.73	-265.62	-35.16	-0.15	-0.03	2.23
16967	11.67	-302.78	-26.57	-0.15	-0.08	2.06
16986	28.14	-328.52	-14.91	0.02	-0.06	1.88
17005	37.26	-329.30	1.25	0.21	0.03	1.63
17024	34.15	-307.25	20.39	0.37	0.08	1.35
17041	25.15	-267.64	37.31	0.45	0.07	1.09
17058	20.28	-244.31	44.07	0.47	0.06	1.00
17077	11.80	-195.47	53.12	0.45	0.04	0.85
17094	6.06	-151.37	56.47	0.40	0.02	0.73
17113	4.14	-111.53	54.98	0.38	-0.03	0.65
17131	5.29	-92.33	52.63	0.41	-0.07	0.60
17149	11.23	-50.40	45.84	0.46	-0.07	0.59
17168	18.75	2.85	35.10	0.60	-0.05	0.60
17185	24.06	72.43	20.19	0.76	-0.02	0.61
17204	27.82	157.67	4.68	0.83	-0.05	0.66
17222	31.16	201.77	-1.11	0.82	-0.06	0.69
17240	38.94	286.99	-7.66	0.79	-0.04	0.74
17258	43.12	367.46	-12.83	0.82	0.01	0.86
17276	41.75	446.12	-17.93	0.70	0.07	1.05
17294	38.76	478.03	-18.36	0.45	0.18	1.41
17312	23.50	499.98	-15.24	0.26	0.22	1.64
17330	1.07	499.95	-19.04	-0.07	0.19	2.17
17349	-10.48	470.32	-31.14	-0.35	0.02	2.60
17367	-6.64	394.36	-45.10	-0.60	0.00	2.83
17386	-4.04	347.44	-53.85	-0.65	-0.00	2.85
17406	2.03	250.79	-69.99	-0.28	-0.03	2.86
17424	12.45	190.43	-77.84	0.01	0.01	2.87
17442	15.47	195.92	-75.56	0.48	0.12	2.85
17460	4.76	247.76	-67.43	0.66	0.20	2.70
17477	-3.37	280.23	-61.29	0.56	0.21	2.47
17496	-19.55	337.07	-43.24	0.44	0.20	2.35
17515	-32.23	365.48	-27.21	0.18	0.17	2.16
17534	-39.52	369.11	-19.91	0.08	0.11	2.08
17551	-33.86	363.37	-16.49	-0.01	-0.03	1.99
17572	-16.92	343.35	-9.66	-0.18	-0.07	1.81
17590	-1.21	306.90	-2.40	-0.23	-0.03	1.63
17610	3.97	287.92	0.41	-0.14	0.01	1.47
17628	9.86	258.71	4.90	-0.08	0.02	1.38
17646	11.02	243.90	9.23	-0.03	0.03	1.19
17664	7.49	233.84	14.04	-0.05	0.05	0.98
17682	0.95	224.88	17.01	-0.03	0.03	0.79
17699	-2.15	221.57	17.75	-0.01	0.02	0.70
17718	-6.93	219.85	18.42	0.04	-0.00	0.59
17736	-9.69	224.90	17.58	0.06	-0.03	0.49
17754	-9.25	228.97	15.99	-0.01	-0.06	0.37
17773	-5.49	225.07	14.40	-0.05	-0.09	0.27
17792	-2.62	222.03	13.57	-0.04	-0.09	0.21
17811	3.11	216.51	11.26	-0.06	-0.09	0.18
17829	8.64	206.47	6.20	-0.13	-0.09	0.10
17847	14.10	188.23	0.26	-0.17	-0.11	0.01
17866	20.08	166.58	-4.01	-0.17	-0.09	-0.06
17885	22.55	146.29	-7.40	-0.15	-0.06	-0.14
17905	20.77	127.53	-11.25	-0.15	-0.04	-0.19
17924	19.35	117.87	-12.97	-0.15	-0.05	-0.25
17943	15.49	98.80	-16.19	-0.15	-0.04	-0.28
17962	9.92	81.15	-19.09	-0.13	-0.03	-0.33
17981	2.37	66.21	-21.24	-0.13	-0.02	-0.38
18001	-4.75	50.96	-22.45	-0.13	-0.04	-0.42
18020	-9.38	33.52	-22.66	-0.13	-0.05	-0.46
18041	-12.62	17.49	-22.32	-0.12	-0.05	-0.47
18060	-15.90	5.39	-20.89	-0.12	-0.05	-0.48
18080	-18.11	-7.55	-18.31	-0.13	-0.05	-0.50
18100	-18.62	-23.39	-15.78	-0.12	-0.05	-0.50
18120	-17.50	-35.06	-13.18	-0.11	-0.05	-0.48
18141	-14.85	-46.31	-10.35	-0.12	-0.06	-0.46
18161	-10.74	-58.43	-6.13	-0.12	-0.06	-0.45
18181	-6.33	-70.62	-0.76	-0.13	-0.06	-0.40
18201	-1.07	-83.57	3.77	-0.15	-0.07	-0.32
18221	5.57	-98.37	7.51	-0.15	-0.07	-0.25
18241	11.38	-113.68	11.31	-0.16	-0.05	-0.22
18261	13.53	-120.68	13.05	-0.15	-0.05	-0.16
18280	16.62	-133.54	16.13	-0.15	-0.05	-0.07
18298	19.45	-147.61	18.83	-0.15	-0.04	-0.01
18318	21.21	-162.41	21.01	-0.15	-0.03	0.09
18337	21.36	-176.77	21.96	-0.15	-0.01	0.19
18356	20.02	-193.04	21.26	-0.19	0.00	0.28
18374	18.48	-212.60	19.68	-0.18	-0.00	0.39
18392	16.07	-230.01	17.01	-0.14	0.03	0.51
18411	13.47	-236.45	14.94	-0.11	0.05	0.57
18430	7.28	-246.26	7.90	-0.07	0.05	0.73
18449	2.66	-251.68	-0.23	-0.05	0.06	0.86
18467	-2.87	-257.61	-7.00	-0.06	0.10	0.98
18486	-9.26	-264.11	-14.37	-0.04	0.05	1.13
18505	-8.42	-269.17	-23.41	0.00	0.01	1.29
18524	-6.45	-270.43	-27.57	-0.01	0.01	1.44
18544	-2.11	-273.61	-29.65	-0.02	-0.00	1.61
18563	2.08	-281.17	-25.71	-0.03	-0.04	1.69
18583	10.70	-289.86	-22.25	-0.03	-0.05	1.82
18602	20.26	-302.12	-17.72	-0.09	-0.01	2.00
18621	28.26	-320.88	-10.89	-0.04	-0.03	2.13
18641	33.92	-326.72	-7.57	0.22	0.05	2.30
18659	28.58	-300.13	1.95	0.40	0.12	2.53
18677	23.01	-273.09	12.77	0.20	0.06	2.71
18695	22.08	-269.17	14.51	0.21	0.07	2.81
18712	18.84	-256.90	8.90	0.30	0.11	3.01
18731	16.77	-245.59	-0.40	0.05	0.06	3.05
18749	25.68	-273.33	-12.42	-0.29	-0.02	3.00
18769	39.12	-327.27	-26.09	-0.20	0.08	2.91
18787	42.33	-346.77	-32.18	-0.04	0.13	2.85
18807	41.11	-358.99	-39.37	0.17	0.18	2.74
18825	37.55	-352.16	-35.83	0.22	0.16	2.61
18843	38.62	-339.14	-22.49	0.23	0.06	2.45
18862	50.19	-329.12	3.68	0.09	-0.02	2.28
18880	63.52	-338.75	41.46	-0.08	-0.04	2.09
18900	68.10	-349.53	62.10	-0.04	-0.01	1.87
18918	69.23	-367.69	100.07	0.05	0.02	1.74
18935	56.99	-361.76	124.79	0.30	0.08	1.44
18954	36.93	-327.26	132.20	0.47	0.08	1.16
18972	20.03	-275.48	124.28	0.53	0.01	0.95
18990	15.11	-247.73	115.83	0.52	-0.02	0.86
19008	11.93	-194.81	93.44	0.47	-0.07	0.73
19025	16.33	-147.75	66.38	0.43	-0.10	0.63
19044	25.18	-105.01	37.80	0.40	-0.12	0.54
19062	30.26	-84.09	23.90	0.47	-0.10	0.50
19081	39.54	-36.39	-2.17	0.54	-0.09	0.50
19099	44.39	27.45	-23.99	0.71	-0.04	0.49
19117	42.65	110.81	-39.70	0.87	0.00	0.47
19135	36.61	209.18	-48.58	0.95	0.00	0.46
19153	33.26	260.41	-50.20	0.95	0.01	0.46
19172	26.63	362.34	-48.65	0.96	0.01	0.48
19190	20.55	463.21	-45.44	0.98	0.00	0.59
19207	14.83	499.98	-43.12	0.83	0.03	0.81
19225	7.37	499.97	-41.29	0.51	0.08	1.21
19243	2.15	499.98	-41.15	0.29	0.10	1.52
19262	-11.17	499.98	-46.66	-0.21	0.09	2.31
19280	-19.52	499.98	-58.14	-0.80	-0.03	2.94
19299	-9.92	417.04	-73.90	-1.12	-0.17	3.20
19318	9.84	259.60	-90.73	-1.04	-0.10	3.03
19337	18.23	190.57	-96.48	-0.48	-0.01	2.90
19356	29.69	104.08	-98.34	-0.06	0.07	2.91
19374	20.66	114.82	-92.19	0.71	0.30	2.83
19392	-12.08	196.33	-78.45	0.80	0.36	2.47
19410	-48.69	271.09	-55.85	0.59	0.29	2.17
19428	-62.74	299.21	-43.47	0.43	0.19	1.96
19447	-79.30	342.47	-23.47	0.37	0.11	1.88
19466	-75.64	371.43	-14.86	0.20	-0.05	1.77
19484	-53.86	379.10	-7.75	-0.00	-0.13	1.74
19504	-27.53	362.87	2.91	-0.19	-0.13	1.69
19522	-4.87	328.58	12.77	-0.26	-0.07	1.60
19542	7.43	290.34	21.99	-0.24	0.02	1.45
19560	9.00	273.16	26.34	-0.17	0.05	1.26
19577	7.46	246.12	33.10	-0.14	0.05	1.16
19596	3.39	228.94	35.28	-0.07	0.03	0.93
19613	0.06	220.63	35.80	-0.02	0.02	0.73
19631	-1.63	219.21	35.77	-0.00	0.02	0.55
19649	-5.45	218.35	35.13	0.00	0.02	0.49
19667	-7.98	218.66	33.29	-0.01	-0.01	0.39
19687	-8.15	218.60	29.89	-0.00	-0.02	0.29
19705	-6.12	218.77	23.45	0.00	-0.05	0.20
19723	-1.30	218.61	13.99	-0.02	-0.08	0.14
19742	1.65	216.60	8.90	-0.06	-0.09	0.11
19760	7.64	206.56	-1.36	-0.11	-0.10	0.06
19780	13.15	190.84	-10.71	-0.13	-0.08	0.00
19798	15.99	172.64	-17.47	-0.15	-0.05	-0.05
19818	16.22	152.13	-23.04	-0.17	-0.05	-0.11
19836	15.23	128.28	-28.14	-0.19	-0.05	-0.16
19855	14.36	115.72	-29.60	-0.17	-0.03	-0.21
19875	10.86	92.44	-29.46	-0.14	-0.01	-0.25
19894	4.87	72.89	-27.10	-0.13	-0.01	-0.27
19914	-1.98	55.77	-24.14	-0.12	-0.01	-0.33
19933	-8.32	39.25	-20.97	-0.12	-0.02	-0.38
19952	-12.25	21.29	-18.39	-0.10	-0.02	-0.41
19973	-14.92	10.07	-15.27	-0.06	-0.03	-0.43
19992	-15.82	3.60	-11.63	-0.05	-0.04	-0.44
20012	-14.94	-2.98	-6.85	-0.06	-0.04	-0.44
20032	-12.50	-11.90	-1.33	-0.07	-0.04	-0.42
20053	-8.18	-21.27	4.39	-0.05	-0.05	-0.40
20072	-3.17	-28.49	8.91	-0.05	-0.05	-0.38
20092	1.92	-35.81	12.76	-0.05	-0.05	-0.33
20111	6.87	-46.25	16.43	-0.06	-0.05	-0.27
20130	11.60	-57.01	20.08	-0.09	-0.06	-0.18
20150	13.73	-63.71	21.99	-0.13	-0.04	-0.10
20169	17.24	-81.85	25.45	-0.15	-0.03	-0.06
20189	16.34	-101.50	27.22	-0.18	-0.01	0.03
20207	14.89	-124.19	26.99	-0.22	-0.02	0.11
20225	14.45	-153.23	25.97	-0.27	-0.02	0.18
20245	12.97	-186.98	25.22	-0.29	0.01	0.25
20262	8.33	-221.63	24.41	-0.30	0.03	0.34
20282	5.74	-239.04	23.88	-0.29	0.02	0.45
20300	1.19	-272.80	21.42	-0.29	0.03	0.51
20318	-5.49	-303.62	17.97	-0.21	0.08	0.62
20337	-15.81	-323.17	13.20	-0.13	0.11	0.76
20355	-23.79	-333.57	5.78	-0.05	0.06	0.92
20375	-24.60	-338.44	-3.08	-0.01	0.02	1.04
20394	-22.86	-339.22	-8.13	0.10	0.03	1.20
20412	-18.31	-332.53	-18.80	0.15	0.02	1.30
20431	-9.52	-316.79	-31.51	0.20	-0.05	1.52
20450	6.29	-300.90	-44.25	0.18	-0.05	1.73
20469	19.78	-290.65	-50.02	0.10	0.05	1.96
20487	24.23	-293.43	-48.03	-0.01	0.05	2.22
20507	26.26	-300.19	-44.97	-0.17	0.04	2.44
20525	31.42	-328.00	-30.65	-0.10	0.11	2.64
20544	31.62	-354.49	-6.67	-0.02	0.12	2.77
20563	30.14	-363.37	13.02	0.12	0.07	2.93
20580	32.30	-361.07	28.98	0.18	0.07	2.99
20598	32.49	-350.40	49.35	0.31	0.07	3.06
20617	32.81	-339.45	56.15	0.40	0.08	3.16
20634	32.59	-311.40	52.58	0.35	0.09	3.19
20652	28.92	-295.01	32.81	0.21	0.15	3.19
20670	20.94	-295.03	13.50	0.09	0.17	3.12
20688	16.74	-300.20	6.03	-0.04	0.14	2.97
20706	12.19	-321.64	-4.41	-0.16	0.15	2.86
20725	10.89	-370.42	-9.57	-0.48	0.09	2.56
20744	15.69	-438.98	-6.36	-0.34	0.03	2.24
20763	27.25	-472.72	4.58	0.10	-0.04	1.97
20781	39.22	-449.94	18.05	0.53	-0.01	1.64
20801	42.45	-420.44	24.70	0.68	0.03	1.30
20818	41.84	-347.49	35.75	0.67	0.06	1.16
20836	32.18	-278.81	45.12	0.54	0.07	0.93
20854	19.50	-229.23	53.15	0.37	0.06	0.74
20871	13.63	-211.14	55.30	0.32	0.01	0.63
20889	6.18	-179.08	52.08	0.35	-0.02	0.58
20908	7.51	-140.41	39.72	0.43	-0.06	0.51
20926	12.94	-90.13	21.56	0.55	-0.07	0.49
20945	19.53	-24.93	2.64	0.69	-0.05	0.47
20963	21.73	13.69	-5.39	0.78	0.00	0.44
20980	21.09	97.50	-16.48	0.78	0.02	0.42
20999	17.73	180.16	-22.96	0.75	-0.00	0.38
21017	16.46	259.89	-26.63	0.84	-0.01	0.38
21036	16.57	355.13	-26.08	1.05	0.01	0.42
21053	15.55	410.06	-23.21	1.06	0.05	0.45
21071	9.57	499.98	-16.08	0.93	0.06	0.56
21089	5.05	499.33	-7.26	0.76	0.10	0.84
21108	-2.96	499.98	2.75	0.48	0.18	1.41
21126	-13.41	499.98	2.72	-0.22	0.12	2.13
21144	-14.68	499.98	-1.07	-0.52	0.07	2.50
21162	-8.99	498.46	-11.55	-0.90	-0.01	3.13
21182	1.40	378.17	-27.83	-1.20	-0.00	3.21
21201	13.61	220.96	-46.28	-0.99	-0.03	2.98
21220	25.31	114.97	-58.96	-0.22	0.06	2.87
21239	23.30	106.20	-66.74	0.52	0.22	2.86
21256	14.89	133.44	-69.17	0.73	0.25	2.78
21274	-6.24	216.05	-66.82	0.79	0.25	2.52
21292	-28.08	297.01	-56.06	0.63	0.21	2.21
21311	-43.33	355.71	-45.72	0.39	0.14	1.97
21329	-49.47	384.09	-37.17	0.12	0.05	1.83
21347	-48.17	387.25	-32.30	0.03	0.01	1.80
21366	-38.31	380.95	-22.49	-0.06	-0.04	1.81
21384	-23.12	365.62	-13.37	-0.15	-0.07	1.76
21404	-9.29	335.74	-2.03	-0.30	-0.03	1.63
21424	-2.27	294.92	8.87	-0.29	0.02	1.48
21442	-1.27	261.32	13.57	-0.21	0.03	1.28
21460	-2.38	248.87	13.63	-0.12	0.04	1.04
21478	-6.91	233.41	11.87	-0.09	0.04	0.92
21496	-13.75	225.74	10.60	-0.08	0.02	0.73
21516	-16.80	219.91	10.09	-0.08	-0.03	0.57
21534	-15.32	214.43	8.39	-0.05	-0.06	0.46
21552	-13.57	213.07	6.77	-0.03	-0.08	0.38
21571	-8.30	212.07	2.88	-0.02	-0.08	0.34
21590	-2.38	212.45	-1.69	-0.03	-0.08	0.25
21609	2.12	210.27	-5.65	-0.07	-0.06	0.17
21630	4.00	201.81	-10.13	-0.11	-0.05	0.08
21648	4.81	188.35	-14.74	-0.12	-0.06	-0.00
21667	6.36	175.16	-18.71	-0.11	-0.07	-0.08
21687	8.06	161.51	-20.46	-0.13	-0.06	-0.14
21706	8.38	143.34	-19.42	-0.16	-0.06	-0.18
21726	7.22	122.36	-16.78	-0.15	-0.04	-0.23
21745	5.72	112.82	-15.18	-0.12	-0.03	-0.29
21765	1.53	96.34	-11.54	-0.11	-0.04	-0.31
21784	-1.88	80.08	-6.85	-0.13	-0.06	-0.37
21803	-3.69	61.71	-0.73	-0.12	-0.05	-0.43
21824	-5.37	46.07	4.46	-0.07	-0.05	-0.47
21842	-6.77	36.27	8.77	-0.05	-0.06	-0.51
21862	-7.83	27.44	12.79	-0.06	-0.05	-0.53
21881	-8.56	16.54	16.30	-0.07	-0.06	-0.54
21901	-8.12	5.60	18.95	-0.06	-0.06	-0.53
21920	-7.48	-3.33	21.30	-0.05	-0.05	-0.51
21939	-7.28	-12.15	23.42	-0.07	-0.05	-0.49
21959	-6.65	-24.77	24.70	-0.09	-0.05	-0.46
21978	-5.83	-32.06	25.02	-0.10	-0.06	-0.41
21998	-3.62	-47.71	24.90	-0.10	-0.06	-0.38
22018	-1.71	-64.12	23.71	-0.12	-0.04	-0.33
22039	-0.67	-82.69	21.77	-0.13	-0.03	-0.28
22058	-1.11	-99.62	18.57	-0.13	-0.03	-0.20
22077	-0.93	-116.39	14.01	-0.15	-0.04	-0.11
22097	-0.43	-135.70	10.56	-0.19	-0.02	-0.04
22116	-1.27	-159.81	9.05	-0.24	-0.01	0.02
22136	-2.38	-188.13	8.06	-0.26	-0.02	0.09
22155	-2.69	-217.00	6.82	-0.26	-0.01	0.20
22174	-3.43	-245.22	7.29	-0.26	0.02	0.31
22193	-4.38	-259.14	8.22	-0.21	0.02	0.43
22211	-6.15	-281.83	9.32	-0.17	0.01	0.50
22231	-4.15	-296.19	6.82	-0.11	-0.02	0.65
22250	-0.12	-302.63	4.64	-0.03	0.02	0.76
22268	-0.78	-300.64	2.91	0.00	0.06	0.88
22287	-2.40	-295.79	-1.53	0.04	0.03	1.02
22305	-2.88	-288.13	-8.62	0.10	0.04	1.13
22325	-3.27	-282.03	-12.21	0.13	0.08	1.30
22343	-6.24	-268.48	-17.88	0.13	0.08	1.40
22361	-6.10	-256.87	-24.00	0.08	0.01	1.60
22381	0.43	-255.29	-27.01	0.01	0.03	1.80
22399	3.52	-265.05	-23.10	-0.09	0.07	1.98
22418	4.18	-284.13	-17.27	-0.09	0.06	2.23
22437	6.85	-306.46	-11.99	-0.14	0.03	2.40
22455	10.19	-319.64	-7.89	-0.13	0.02	2.45
22475	17.97	-345.03	0.52	-0.09	0.00	2.63
22493	25.86	-360.31	0.43	0.06	0.05	2.77
22511	29.10	-361.28	-5.54	0.15	0.09	2.81
22530	27.57	-351.85	-8.07	0.24	0.12	2.85
22548	24.77	-343.78	-11.38	0.37	0.16	2.86
22567	15.14	-318.25	-25.01	0.46	0.18	2.87
22585	6.32	-278.29	-41.52	0.47	0.12	2.89
22604	10.41	-247.44	-48.55	0.30	-0.02	2.89
22622	27.19	-239.58	-47.87	0.08	-0.06	2.81
22641	43.64	-258.44	-37.08	-0.20	-0.05	2.61
22661	60.81	-306.82	-7.92	-0.34	-0.13	2.31
22679	71.84	-334.44	14.34	-0.30	-0.16	2.16
22699	88.88	-377.21	63.63	-0.10	-0.06	1.99
22717	82.06	-388.09	108.29	0.23	0.17	1.77
22735	47.24	-360.24	138.32	0.46	0.27	1.51
22754	6.59	-310.23	150.28	0.51	0.19	1.26
22771	-9.26	-283.60	150.10	0.48	0.11	1.15
22790	-26.70	-236.54	140.93	0.38	-0.03	0.96
22808	-25.76	-198.49	120.32	0.37	-0.14	0.83
22828	-11.17	-160.87	87.80	0.37	-0.19	0.72
22847	9.29	-122.09	46.42	0.39	-0.18	0.63
22865	29.40	-80.00	3.45	0.46	-0.16	0.59
22883	38.42	-55.50	-16.31	0.62	-0.11	0.58
22902	50.90	7.83	-49.03	0.69	-0.06	0.58
22919	51.71	87.94	-70.50	0.80	0.03	0.56
22938	41.53	177.31	-79.73	0.83	0.06	0.56
22956	29.04	265.43	-79.76	0.82	0.06	0.59
22974	22.81	308.79	-76.80	0.87	0.06	0.62
22992	8.27	403.93	-64.76	0.95	0.08	0.74
23009	-6.84	495.10	-46.30	0.86	0.07	0.96
23028	-16.33	499.59	-21.55	0.50	0.07	1.30
23046	-19.27	499.82	-9.67	0.03	0.07	1.88
23064	-23.80	499.98	2.94	-0.15	0.05	2.25
23083	-18.26	498.29	0.78	-0.67	-0.12	2.80
23102	4.10	394.12	-8.94	-0.89	-0.16	3.00
23120	28.75	273.42	-30.99	-0.65	-0.10	2.99
23140	43.29	191.53	-55.40	-0.25	0.02	2.88
23158	45.58	170.68	-63.98	0.32	0.21	2.86
23176	33.92	180.40	-76.48	0.56	0.30	2.87
23194	2.61	243.09	-89.10	0.71	0.35	2.74
23211	-29.54	308.82	-94.13	0.50	0.28	2.46
23230	-49.55	345.12	-86.67	0.21	0.17	2.25
23248	-55.04	350.52	-81.88	0.08	0.14	2.19
23267	-59.13	342.79	-75.97	-0.04	0.05	2.15
23286	-51.24	325.07	-69.38	-0.08	-0.05	2.07
23304	-34.68	308.87	-52.61	-0.03	-0.04	1.94
23324	-24.90	296.51	-29.72	-0.07	0.04	1.70
23342	-26.75	279.98	-10.73	-0.08	0.08	1.47
23363	-31.33	265.52	5.57	-0.02	0.06	1.24
23380	-33.29	261.99	13.43	0.01	0.05	1.13
23398	-34.74	259.69	27.50	0.01	0.01	0.94
23416	-34.41	257.84	38.56	-0.00	0.00	0.76
23434	-32.64	255.00	45.88	-0.02	-0.02	0.62
23454	-27.24	250.31	49.18	-0.03	-0.06	0.50
23473	-23.19	248.03	49.47	-0.02	-0.07	0.41
23491	-14.31	243.56	46.74	-0.02	-0.06	0.37
23510	-6.59	240.17	39.75	-0.01	-0.07	0.30
23529	1.69	234.36	30.35	-0.09	-0.08	0.21
23547	9.41	218.20	20.90	-0.14	-0.09	0.14
23566	16.57	197.04	11.47	-0.15	-0.08	0.09
23583	18.66	185.79	6.71	-0.15	-0.05	0.06
23602	18.30	160.93	-1.97	-0.19	-0.03	-0.03
23621	14.88	131.44	-9.02	-0.21	-0.02	-0.09
23639	8.07	104.29	-15.93	-0.14	0.01	-0.12
23658	-1.25	84.69	-21.76	-0.12	0.00	-0.17
23677	-8.62	64.42	-26.02	-0.15	-0.03	-0.22
23696	-11.06	53.13	-27.33	-0.14	-0.03	-0.30
23715	-15.30	32.81	-28.79	-0.12	-0.03	-0.32
23734	-19.52	18.52	-29.53	-0.08	-0.04	-0.36
23754	-21.38	8.94	-29.48	-0.09	-0.05	-0.41
23773	-20.84	-2.85	-27.74	-0.13	-0.06	-0.45
23793	-19.38	-15.67	-25.79	-0.10	-0.06	-0.47
23812	-17.26	-23.25	-23.90	-0.07	-0.05	-0.48
23832	-14.42	-28.09	-21.22	-0.08	-0.05	-0.50
23852	-10.54	-33.54	-16.89	-0.08	-0.06	-0.51
23871	-5.07	-40.16	-12.33	-0.09	-0.07	-0.50
23891	1.10	-46.94	-8.61	-0.09	-0.08	-0.46
23910	4.23	-50.03	-6.85	-0.11	-0.08	-0.41
23929	11.00	-59.78	-2.56	-0.13	-0.08	-0.38
23948	17.56	-73.52	2.00	-0.14	-0.08	-0.30
23968	23.38	-87.69	5.69	-0.12	-0.07	-0.24
23987	25.91	-99.20	8.91	-0.13	-0.05	-0.17
24005	26.70	-113.08	12.12	-0.15	-0.05	-0.10
24024	27.27	-129.30	14.95	-0.16	-0.05	-0.02
24043	27.54	-146.65	16.78	-0.16	-0.06	0.07
24061	27.63	-155.18	17.41	-0.16	-0.05	0.11
24079	27.04	-172.20	18.54	-0.17	-0.03	0.18
24098	24.41	-190.80	20.39	-0.17	-0.02	0.27
24116	20.36	-208.69	23.06	-0.14	-0.00	0.37
24135	15.29	-221.30	25.42	-0.08	0.02	0.52
24152	12.42	-225.56	25.88	-0.09	0.02	0.59
24172	6.62	-235.28	24.83	-0.09	0.01	0.74
24190	3.33	-245.03	21.09	-0.07	-0.01	0.90
24208	0.11	-252.18	18.23	-0.03	0.04	1.05
24227	-5.57	-255.84	15.64	-0.04	0.01	1.20
24246	-6.30	-259.20	12.80	-0.04	-0.05	1.35
24266	-2.18	-267.12	6.06	-0.02	-0.02	1.51
24285	1.66	-273.97	4.27	-0.04	0.00	1.59
24302	2.69	-284.81	4.71	-0.03	-0.02	1.77
24321	8.67	-294.69	-1.07	0.01	-0.04	1.97
24339	11.96	-299.58	-2.47	0.05	0.05	2.17
24357	10.50	-301.13	1.14	-0.05	0.04	2.34
24377	8.41	-314.41	8.12	0.03	0.02	2.43
24394	10.74	-324.92	7.54	0.10	0.04	2.48
24412	9.69	-318.80	15.00	0.25	0.09	2.68
24430	7.08	-299.53	32.79	0.28	0.09	2.89
24448	5.62	-290.12	39.44	0.23	0.10	2.92
24465	5.29	-281.04	45.10	0.12	0.06	2.91
24484	5.49	-287.95	50.55	0.01	0.08	2.94
24502	1.34	-305.42	52.08	-0.01	0.11	2.92
24521	-7.31	-319.63	36.25	0.13	0.15	2.87
24539	-11.66	-319.56	22.35	0.20	0.14	2.86
24556	-12.31	-311.05	-7.78	0.19	0.05	2.82
24576	-1.45	-307.74	-32.67	0.05	0.05	2.67
24594	6.87	-323.64	-52.25	-0.14	0.05	2.44
24614	13.99	-356.29	-61.83	-0.20	0.05	2.17
24632	22.08	-387.08	-56.79	-0.09	-0.01	1.90
24651	27.60	-395.11	-49.97	0.05	-0.02	1.76
24670	39.67	-382.86	-28.11	0.35	-0.07	1.47
24689	49.70	-336.69	2.44	0.54	-0.04	1.19
24708	50.77	-275.21	34.12	0.54	-0.00	0.97
24726	43.32	-218.09	58.49	0.47	0.05	0.82
24743	36.88	-192.78	66.70	0.40	0.07	0.72
24762	22.29	-147.77	76.75	0.38	0.06	0.67
24780	10.86	-106.81	78.37	0.40	0.02	0.60
24798	6.00	-59.94	71.30	0.50	-0.03	0.58
24817	8.16	-2.38	55.28	0.60	-0.08	0.55
24835	12.30	30.55	44.04	0.72	-0.14	0.54
24853	26.46	106.16	18.71	0.79	-0.15	0.53
24871	41.38	195.01	-4.68	0.89	-0.13	0.55
24889	52.84	290.94	-23.38	0.89	-0.11	0.57
24908	62.58	384.69	-36.61	0.90	-0.09	0.61
24926	65.02	431.41	-39.25	0.91	0.04	0.75
24944	58.40	499.98	-39.41	0.90	0.10	0.87
24961	37.86	499.48	-39.00	0.64	0.20	1.24
24979	10.53	499.98	-39.47	0.05	0.23	1.84
24998	-4.21	499.98	-40.76	-0.47	0.21	2.63
25016	-31.83	499.98	-52.66	-0.81	0.11	2.93
25034	-32.90	411.12	-78.66	-1.20	-0.16	3.16
25054	-6.07	248.93	-98.45	-0.87	-0.20	3.11
25073	21.00	150.42	-105.39	-0.26	-0.07	2.99
25092	29.89	128.11	-102.66	0.38	0.15	2.94
25110	12.85	183.09	-86.38	0.87	0.34	2.78
25127	-3.69	229.77	-73.46	0.87	0.39	2.61
25146	-39.66	311.43	-47.68	0.55	0.32	2.25
25164	-61.37	354.71	-29.25	0.30	0.17	2.00
25183	-64.90	374.27	-17.09	0.22	0.05	1.83
25201	-52.63	386.98	-14.24	0.11	-0.07	1.77
25220	-41.84	387.54	-13.93	-0.00	-0.09	1.74
25240	-19.20	368.42	-9.86	-0.19	-0.07	1.63
25258	-4.15	332.11	-1.43	-0.22	0.01	1.50
25278	0.18	296.49	6.50	-0.18	0.06	1.34
25296	-4.97	268.81	10.60	-0.11	0.11	1.14
25314	-14.02	249.83	11.84	-0.08	0.07	0.92
25333	-17.58	241.76	12.66	-0.08	0.03	0.72
25351	-21.24	226.75	14.18	-0.06	0.01	0.64
25370	-21.27	217.27	14.66	-0.03	-0.02	0.52
25388	-18.71	210.69	13.96	-0.04	-0.04	0.41
25407	-14.68	203.37	12.74	-0.05	-0.04	0.32
25426	-10.93	195.95	10.64	-0.05	-0.05	0.27
25445	-9.16	192.55	9.37	-0.04	-0.05	0.21
25464	-5.10	186.25	6.39	-0.06	-0.06	0.17
25482	0.05	175.90	3.49	-0.12	-0.07	0.07
25501	5.16	159.67	1.11	-0.14	-0.06	0.01
25520	7.77	141.62	-1.89	-0.13	-0.04	-0.02
25538	7.48	127.41	-4.55	-0.08	-0.03	-0.06
25558	6.91	116.87	-5.28	-0.10	-0.04	-0.13
25577	6.84	110.14	-4.67	-0.15	-0.03	-0.20
25595	5.72	91.78	-3.33	-0.17	-0.03	-0.22
25616	4.00	70.18	-2.55	-0.16	-0.04	-0.26
25634	2.27	50.35	-2.73	-0.14	-0.04	-0.30
25654	0.67	32.00	-3.48	-0.15	-0.04	-0.33
25673	0.18	11.49	-2.85	-0.17	-0.06	-0.37
25693	1.05	-9.75	-0.75	-0.16	-0.05	-0.38
25713	0.69	-27.89	0.75	-0.14	-0.03	-0.40
25731	-1.59	-42.91	0.81	-0.13	-0.04	-0.41
25751	-3.10	-56.63	1.30	-0.14	-0.05	-0.42
25771	-2.94	-71.35	2.12	-0.15	-0.05	-0.42
25791	-2.87	-85.59	2.55	-0.14	-0.05	-0.39
25811	-2.72	-91.98	2.64	-0.12	-0.04	-0.36
25831	-2.32	-103.07	3.31	-0.12	-0.04	-0.31
25850	-2.24	-112.75	3.68	-0.12	-0.04	-0.28
25870	-0.47	-122.27	3.49	-0.11	-0.05	-0.20
25889	2.88	-130.69	2.88	-0.09	-0.05	-0.10
25909	5.69	-137.30	3.51	-0.07	-0.03	-0.02
25928	6.90	-142.79	4.68	-0.07	-0.02	0.07
25947	7.11	-148.53	4.81	-0.06	-0.01	0.18
25966	8.41	-154.75	4.17	-0.06	-0.03	0.27
25984	11.05	-161.93	3.80	-0.07	-0.02	0.38
26002	11.87	-166.60	3.85	-0.09	-0.00	0.44
26023	12.31	-179.03	2.87	-0.11	0.02	0.58
26041	11.35	-194.61	0.44	-0.13	0.03	0.71
26059	8.96	-211.91	-2.29	-0.14	0.08	0.83
26078	4.04	-232.42	-5.04	-0.18	0.07	0.97
26096	3.17	-257.42	-9.41	-0.17	0.01	1.10
26116	9.25	-278.70	-14.89	-0.09	-0.01	1.25
26135	12.57	-285.75	-16.39	-0.06	0.02	1.31
26153	15.35	-296.26	-16.46	-0.06	0.05	1.45
26172	16.33	-306.20	-14.21	0.01	0.05	1.67
26190	18.23	-304.09	-10.59	0.14	0.04	1.87
26209	21.33	-292.76	-3.04	0.10	0.03	2.00
26227	23.70	-290.33	0.37	0.02	0.02	2.15
26245	29.11	-293.03	5.97	0.04	0.03	2.23
26263	31.69	-291.03	10.48	0.22	0.07	2.46
26280	33.25	-270.66	14.91	0.25	0.07	2.66
26298	34.03	-262.59	16.75	0.07	0.11	2.78
26317	31.66	-264.01	17.33	0.06	0.13	2.86
26334	24.95	-269.71	11.81	0.11	0.17	3.00
26352	19.99	-273.68	2.15	0.11	0.13	3.08
26370	24.66	-279.97	-6.26	0.04	0.08	3.08
26388	28.05	-286.36	-9.03	0.01	0.09	3.06
26406	30.59	-304.98	-11.47	-0.03	0.14	2.95
26426	28.34	-323.55	-12.07	0.02	0.12	2.74
26444	28.40	-333.59	-10.12	0.11	0.05	2.50
26462	33.52	-332.37	-3.95	0.19	0.03	2.28
26481	36.77	-328.57	0.38	0.15	-0.03	2.12
26499	47.47	-322.45	14.25	0.10	-0.05	2.04
26517	58.85	-327.65	35.26	0.00	-0.03	1.89
26535	59.30	-340.64	60.18	-0.01	0.09	1.77
26553	44.31	-347.05	85.19	0.12	0.12	1.58
26571	34.61	-342.48	95.87	0.21	0.12	1.49
26588	14.43	-316.64	110.17	0.36	0.06	1.23
26606	1.43	-274.61	113.72	0.43	-0.01	1.00
26626	-4.64	-227.95	105.94	0.40	-0.05	0.80
26644	-5.39	-206.82	98.01	0.36	-0.09	0.66
26662	-2.29	-167.88	74.87	0.37	-0.11	0.60
26682	6.74	-127.49	43.95	0.42	-0.14	0.51
26699	18.10	-79.01	9.51	0.53	-0.12	0.48
26718	26.92	-14.54	-24.95	0.70	-0.10	0.47
26737	35.40	67.93	-54.05	0.83	-0.11	0.45
26755	39.40	114.47	-63.98	0.97	-0.08	0.42
26774	42.54	218.95	-72.97	1.00	-0.05	0.42
26792	37.02	327.35	-71.78	0.94	0.01	0.40
26810	26.70	425.67	-64.18	0.93	0.06	0.42
26829	10.42	499.98	-49.10	1.00	0.13	0.51
26846	-0.47	499.98	-40.73	0.98	0.15	0.61
26865	-20.98	499.98	-28.78	0.65	0.11	0.96
26883	-32.32	499.98	-26.58	0.23	0.07	1.56
26901	-37.49	499.98	-33.60	-0.28	0.01	2.40
26921	-34.47	499.98	-45.27	-0.90	-0.10	3.08
26940	-18.37	424.03	-60.20	-1.19	-0.20	3.32
26959	-5.74	336.76	-68.34	-0.97	-0.12	3.16
26979	15.06	198.38	-79.04	-0.45	-0.01	2.89
26997	21.88	117.07	-78.40	-0.10	0.04	2.83
27016	14.66	119.55	-62.32	0.58	0.22	2.70
27034	-13.43	188.08	-38.33	0.74	0.33	2.38
27052	-45.49	258.45	-15.95	0.51	0.22	2.04
27071	-55.16	283.10	-7.05	0.36	0.10	1.82
27088	-61.77	319.46	5.45	0.30	0.07	1.73
27107	-58.94	341.57	8.13	0.15	-0.01	1.57
27125	-45.53	344.85	6.47	-0.01	-0.10	1.47
27144	-26.23	330.37	8.10	-0.15	-0.08	1.40
27163	-11.72	303.94	11.76	-0.18	-0.02	1.33
27181	-7.58	289.95	12.95	-0.20	-0.00	1.28
27200	-4.59	260.09	12.79	-0.21	0.02	1.15
27218	-5.74	230.59	12.22	-0.20	0.03	0.95
27236	-8.12	205.60	13.60	-0.20	0.00	0.74
27256	-7.72	183.81	15.66	-0.16	-0.01	0.56
27274	-7.32	175.87	17.59	-0.08	0.00	0.43
27292	-7.92	168.67	23.04	-0.06	0.01	0.38
27310	-8.21	167.54	27.28	-0.02	-0.01	0.30
27329	-4.61	168.78	26.63	-0.06	-0.05	0.24
27348	1.92	162.57	21.56	-0.12	-0.07	0.19
27366	7.72	151.78	15.09	-0.11	-0.05	0.15
27384	9.49	147.02	12.05	-0.11	-0.04	0.11
27402	10.77	138.31	6.90	-0.12	-0.02	0.06
27420	9.90	127.18	2.98	-0.16	-0.04	0.01
27438	9.49	112.50	-1.21	-0.18	-0.04	-0.04
27458	7.60	96.92	-5.28	-0.17	-0.03	-0.11
27477	6.48	90.09	-6.61	-0.14	-0.03	-0.17
27497	4.33	79.04	-8.85	-0.15	-0.03	-0.21
27515	2.17	65.83	-9.75	-0.19	-0.03	-0.27
27534	-0.14	47.99	-9.05	-0.22	-0.03	-0.32
27555	-1.89	27.94	-7.60	-0.22	-0.03	-0.37
27574	-3.16	10.04	-5.49	-0.22	-0.04	-0.41
27594	-3.49	-8.76	-3.04	-0.25	-0.05	-0.44
27614	-2.55	-29.25	0.29	-0.23	-0.05	-0.45
27634	-2.15	-46.16	5.42	-0.20	-0.04	-0.44
27654	-1.89	-58.91	11.08	-0.17	-0.04	-0.42
27673	-1.66	-68.74	14.94	-0.17	-0.04	-0.41
27693	-1.13	-79.42	16.22	-0.17	-0.05	-0.38
27712	0.92	-89.28	16.63	-0.15	-0.05	-0.34
27732	3.59	-97.56	16.19	-0.13	-0.05	-0.29
27751	5.02	-101.10	15.59	-0.11	-0.04	-0.23
27771	6.64	-106.75	14.56	-0.10	-0.03	-0.20
27790	5.87	-110.31	13.32	-0.08	-0.01	-0.13
27809	4.07	-113.80	10.68	-0.07	-0.02	-0.02
27828	3.72	-117.63	5.97	-0.06	-0.02	0.08
27847	2.64	-122.33	1.22	-0.05	-0.00	0.17
27866	1.05	-127.62	-1.88	-0.07	0.00	0.27
27885	0.66	-137.30	-4.56	-0.10	-0.01	0.39
27904	1.08	-143.57	-6.32	-0.09	-0.01	0.52
27923	2.99	-156.72	-11.08	-0.07	0.00	0.58
27941	2.50	-166.52	-14.83	-0.07	0.04	0.69
27961	0.40	-180.05	-16.69	-0.12	0.04	0.81
27979	-0.05	-199.19	-18.94	-0.13	0.02	0.94
27999	2.47	-218.44	-21.65	-0.09	0.02	1.08
28017	6.12	-231.69	-24.03	-0.06	0.03	1.25
28037	8.16	-238.19	-25.09	-0.14	0.03	1.42
28056	12.77	-257.86	-25.88	-0.14	0.02	1.50
28074	17.94	-278.12	-22.84	-0.06	0.04	1.67
28093	21.58	-286.87	-14.39	0.04	0.04	1.89
28111	24.99	-288.36	-5.69	0.06	0.06	2.11
28130	26.32	-287.96	1.21	0.13	0.06	2.27
28147	26.93	-284.99	6.24	0.14	0.09	2.32
28165	23.68	-280.44	20.81	0.11	0.12	2.45
28184	15.79	-279.86	36.03	0.11	0.15	2.65
28202	4.91	-279.57	42.13	0.13	0.13	2.80
28220	1.14	-281.27	43.03	0.12	0.03	2.89
28237	3.78	-283.00	43.37	0.11	-0.01	2.91
28255	11.43	-290.95	41.92	0.02	0.01	2.90
28274	12.68	-307.60	33.40	0.03	0.07	2.90
28292	7.11	-318.57	19.04	0.11	0.10	2.89
28310	3.14	-320.01	10.94	0.16	0.10	2.86
28327	-2.27	-315.66	-6.73	0.19	0.06	2.78
28345	-0.43	-313.22	-22.67	0.10	0.01	2.61
28364	5.95	-318.02	-30.65	0.08	0.01	2.38
28383	8.47	-320.66	-31.11	-0.02	-0.03	2.18
28402	15.66	-332.78	-28.81	-0.10	0.03	1.97
28420	18.10	-354.28	-23.83	-0.10	0.06	1.87
28438	15.52	-370.53	-13.31	0.03	0.03	1.65
28456	16.59	-362.29	1.86	0.28	-0.03	1.39
28475	20.80	-325.71	17.93	0.43	-0.06	1.10
28493	23.15	-301.73	25.04	0.45	-0.06	0.96
28510	25.51	-253.04	35.80	0.42	-0.04	0.75
28528	24.40	-208.18	42.68	0.38	-0.01	0.62
28546	19.85	-167.05	45.81	0.35	0.00	0.52
28563	17.01	-147.64	46.25	0.35	0.00	0.48
28581	12.21	-107.77	44.97	0.40	-0.02	0.45
28600	11.47	-59.43	40.80	0.51	-0.05	0.43
28617	13.66	0.41	34.48	0.59	-0.05	0.41
28635	14.92	33.55	30.52	0.65	-0.05	0.40
28652	19.87	110.40	20.25	0.79	-0.10	0.42
28670	31.46	198.24	7.42	0.80	-0.14	0.40
28688	45.46	283.17	-4.06	0.79	-0.10	0.39
28706	50.86	325.09	-9.22	0.85	-0.07	0.43
28723	56.55	419.01	-18.48	0.97	-0.02	0.55
28741	55.62	499.98	-18.77	0.93	0.12	0.71
28759	37.90	499.39	-10.28	0.71	0.26	1.01
28776	23.32	499.98	-8.00	0.50	0.31	1.27
28794	-6.99	499.98	-11.02	-0.07	0.24	1.96
28812	-23.01	499.98	-17.59	-0.48	0.06	2.74
28831	-20.22	479.98	-28.50	-0.86	-0.05	3.17
28849	-13.79	413.89	-38.68	-1.04	-0.18	3.20
28868	10.77	269.20	-60.09	-0.91	-0.22	3.17
28887	41.99	164.41	-68.42	-0.30	-0.12	3.08
28905	52.29	140.23	-70.92	0.39	0.16	3.03
28925	30.70	192.26	-69.95	0.76	0.32	2.80
28942	-4.84	268.95	-58.07	0.64	0.32	2.40
28961	-21.30	300.03	-50.13	0.34	0.20	2.13
28980	-42.28	335.39	-37.02	0.24	0.12	2.05
28998	-45.41	349.85	-29.33	0.20	0.04	1.94
29017	-38.48	363.59	-28.66	0.14	-0.01	1.84
29035	-26.66	360.90	-27.59	-0.11	-0.06	1.71
29055	-14.54	331.04	-24.86	-0.25	-0.02	1.58
29073	-7.61	293.08	-19.33	-0.21	0.02	1.47
29094	-6.27	277.31	-15.64	-0.17	0.04	1.39
29112	-9.08	252.69	-9.09	-0.14	0.07	1.21
29130	-15.55	231.86	-4.56	-0.16	0.04	1.00
29149	-19.67	209.56	0.35	-0.17	0.02	0.80
29167	-20.65	191.62	5.02	-0.08	-0.01	0.65
29188	-20.07	185.75	7.55	-0.02	-0.02	0.51
29206	-18.55	186.22	7.58	-0.00	-0.03	0.38
29224	-17.18	187.38	6.74	0.00	-0.04	0.32
29243	-13.72	189.21	3.23	-0.02	-0.06	0.22
29261	-8.48	188.71	-1.53	-0.04	-0.08	0.12
29281	-2.70	186.69	-4.64	-0.05	-0.08	0.06
29300	1.07	183.12	-3.40	-0.07	-0.05	-0.00
29320	1.92	176.59	-0.63	-0.10	-0.04	-0.05
29339	2.59	165.59	0.72	-0.13	-0.04	-0.11
29357	3.20	158.45	1.04	-0.15	-0.04	-0.17
29376	3.72	141.60	1.79	-0.16	-0.03	-0.21
29395	2.08	122.19	2.00	-0.19	-0.02	-0.26
29415	0.20	99.88	1.16	-0.19	-0.04	-0.30
29433	-0.03	77.41	0.89	-0.19	-0.05	-0.33
29452	-0.99	55.74	1.14	-0.18	-0.02	-0.38
29471	-4.18	34.79	0.75	-0.17	-0.02	-0.42
29490	-6.56	15.70	0.08	-0.16	-0.04	-0.45
29510	-7.03	7.16	-0.73	-0.15	-0.05	-0.47
29529	-6.94	-7.87	-2.47	-0.15	-0.05	-0.48
29549	-6.38	-22.23	-3.51	-0.14	-0.05	-0.49
29570	-5.10	-35.11	-4.18	-0.14	-0.06	-0.47
29589	-2.14	-47.78	-3.81	-0.14	-0.06	-0.45
29610	1.46	-59.78	-2.79	-0.14	-0.06	-0.44
29629	5.83	-71.18	-1.59	-0.14	-0.06	-0.41
29649	9.84	-82.24	-0.53	-0.14	-0.06	-0.36
29669	12.92	-94.89	0.26	-0.15	-0.05	-0.32
29687	15.38	-107.12	1.43	-0.14	-0.05	-0.27
29708	18.63	-117.81	3.65	-0.13	-0.05	-0.20
29727	21.41	-128.39	7.00	-0.12	-0.04	-0.11
29746	22.05	-138.34	10.85	-0.10	-0.03	-0.03
29765	21.16	-146.01	13.82	-0.09	-0.02	0.08
29784	20.78	-149.49	14.85	-0.11	-0.03	0.20
29803	21.12	-159.09	17.44	-0.13	-0.04	0.26
29822	21.64	-173.36	21.26	-0.15	-0.02	0.35
29841	18.48	-189.01	25.56	-0.13	0.03	0.45
29859	12.30	-202.67	29.01	-0.10	0.02	0.56
29877	8.00	-213.75	29.98	-0.08	0.01	0.68
29896	6.68	-218.48	28.90	-0.04	0.01	0.81
29914	5.22	-224.73	24.37	-0.02	0.02	0.87
29933	3.43	-228.97	20.98	-0.03	0.02	1.00
29951	2.78	-234.54	16.51	-0.02	0.01	1.18
29970	4.12	-240.63	9.25	-0.01	0.00	1.34
29988	6.68	-245.62	2.70	-0.04	0.01	1.45
30007	8.06	-250.69	1.40	-0.09	0.01	1.53
30026	9.61	-268.75	1.05	-0.11	0.04	1.73
30044	9.90	-283.14	1.11	0.03	0.05	1.90
30062	8.06	-284.67	4.20	0.02	0.08	2.04
30080	5.07	-296.65	11.61	-0.14	0.07	2.21
30098	4.36	-309.39	15.34	-0.14	0.07	2.29
30118	3.20	-328.06	21.36	0.08	0.09	2.45
30135	1.43	-317.99	26.47	0.28	0.09	2.65
30152	-0.32	-298.45	28.41	0.16	0.09	2.77
30171	-0.18	-296.05	22.35	0.10	0.08	2.82
30189	1.11	-297.09	18.10	0.12	0.07	2.82
30208	4.53	-295.09	12.76	0.14	0.08	2.80
30226	4.18	-295.79	9.43	0.09	0.11	2.79
30243	0.85	-298.90	1.33	0.14	0.13	2.75
30261	-1.02	-297.58	-4.33	0.21	0.12	2.69
30280	-3.34	-288.53	-16.86	0.21	0.10	2.65
30299	-0.60	-280.12	-29.07	0.14	0.05	2.54
30319	6.71	-278.49	-38.12	0.10	0.02	2.37
30336	14.66	-278.44	-40.15	0.06	0.03	2.15
30355	21.29	-284.65	-35.22	-0.05	0.02	1.90
30374	24.22	-291.66	-30.82	-0.07	0.01	1.66
30393	29.21	-306.06	-19.39	-0.03	0.02	1.57
30412	29.80	-309.02	-3.92	0.12	0.04	1.37
30430	26.76	-288.88	15.00	0.34	0.03	1.17
30448	22.54	-244.26	34.09	0.48	0.01	1.00
30466	18.11	-188.80	49.24	0.48	-0.00	0.84
30484	16.13	-161.80	54.95	0.45	-0.01	0.76
30502	13.09	-114.88	62.90	0.37	-0.01	0.64
30521	10.44	-76.83	66.67	0.34	-0.02	0.55
30539	9.28	-41.14	66.28	0.36	-0.03	0.51
30557	9.78	0.37	61.72	0.47	-0.03	0.49
30575	10.42	26.03	57.88	0.54	-0.03	0.49
30593	13.46	88.87	46.83	0.69	-0.05	0.52
30610	20.29	169.97	32.64	0.86	-0.09	0.58
30630	31.49	266.05	18.77	0.90	-0.10	0.64
30647	37.69	314.56	12.47	0.88	-0.10	0.66
30665	48.71	404.65	1.30	0.79	-0.06	0.74
30683	53.65	480.97	-7.08	0.70	0.01	0.98
30700	48.63	499.98	-14.86	0.47	0.11	1.39
30719	41.73	499.59	-17.44	0.30	0.15	1.67
30737	22.58	499.98	-20.83	-0.31	0.16	2.25
30754	6.21	476.30	-31.37	-0.88	0.10	2.70
30773	-0.44	340.77	-49.47	-0.98	0.01	2.85
30791	9.16	215.19	-64.42	-0.70	-0.08	2.82
30811	17.87	167.66	-69.17	-0.42	-0.08	2.83
30830	33.55	126.39	-73.99	0.21	0.04	2.88
30847	32.39	159.97	-72.74	0.71	0.20	2.86
30866	11.75	241.50	-63.31	0.85	0.31	2.65
30883	-17.73	325.76	-48.05	0.65	0.30	2.38
30901	-31.28	357.30	-40.34	0.50	0.26	2.28
30920	-48.66	393.84	-27.71	0.21	0.14	2.17
30938	-48.74	396.56	-17.82	-0.10	0.00	2.10
30958	-35.74	362.75	-12.36	-0.38	-0.05	2.05
30977	-17.85	302.83	-10.33	-0.42	-0.06	1.97
30997	-0.92	249.30	-8.51	-0.26	-0.02	1.79
31016	8.59	215.00	-8.88	-0.15	0.03	1.54
31034	9.89	203.19	-10.27	-0.05	0.07	1.31
31053	7.43	190.55	-13.15	-0.00	0.07	1.20
31071	1.21	190.66	-14.50	0.06	0.07	0.98
31089	-6.97	199.14	-13.12	0.10	0.06	0.79
31107	-14.05	211.36	-9.55	0.07	0.02	0.62
31125	-16.54	216.58	-7.20	0.05	0.01	0.54
31145	-18.97	223.53	-2.59	0.02	-0.02	0.42
31163	-18.17	229.51	0.05	0.04	-0.04	0.34
31182	-15.14	237.18	0.61	0.03	-0.07	0.28
31200	-11.03	241.17	1.30	-0.04	-0.07	0.19
31218	-6.87	236.92	2.73	-0.08	-0.07	0.10
31238	-3.23	227.25	4.30	-0.12	-0.06	0.02
31256	-1.59	220.49	5.07	-0.14	-0.06	-0.01
31276	1.22	203.16	6.18	-0.17	-0.07	-0.08
31294	3.43	182.80	6.91	-0.17	-0.06	-0.13
31313	4.09	162.41	6.87	-0.16	-0.05	-0.18
31333	3.81	141.45	6.84	-0.17	-0.05	-0.22
31351	3.19	119.05	7.14	-0.18	-0.05	-0.27
31370	1.89	96.53	6.99	-0.17	-0.05	-0.33
31388	1.40	86.00	6.73	-0.16	-0.05	-0.36
31407	0.35	65.02	6.55	-0.16	-0.05	-0.41
31426	-0.64	44.91	6.18	-0.15	-0.05	-0.45
31445	-1.94	25.45	4.82	-0.12	-0.05	-0.48
31465	-3.68	12.36	3.27	-0.10	-0.05	-0.50
31484	-5.34	0.92	1.98	-0.10	-0.05	-0.50
31503	-5.04	-9.75	0.82	-0.10	-0.07	-0.51
31523	-3.89	-20.66	0.82	-0.10	-0.06	-0.50
31543	-3.92	-30.88	1.75	-0.09	-0.05	-0.47
31563	-4.32	-41.05	1.97	-0.11	-0.06	-0.44
31582	-4.03	-46.75	1.69	-0.12	-0.06	-0.42
31602	-1.21	-61.77	0.76	-0.15	-0.07	-0.39
31622	1.72	-78.90	0.03	-0.15	-0.06	-0.36
31641	3.40	-94.86	-0.43	-0.15	-0.06	-0.31
31661	5.31	-111.43	-1.01	-0.17	-0.05	-0.24
31680	6.87	-129.46	-0.82	-0.19	-0.04	-0.16
31700	7.77	-149.00	0.26	-0.20	-0.04	-0.08
31719	8.83	-169.98	0.93	-0.21	-0.03	0.01
31737	9.52	-190.75	1.59	-0.20	-0.03	0.09
31757	10.01	-209.26	3.65	-0.16	-0.01	0.20
31776	9.67	-216.28	5.04	-0.12	0.02	0.31
31793	7.26	-227.11	8.27	-0.13	0.02	0.37
31811	5.63	-238.75	10.99	-0.13	-0.01	0.47
31831	6.94	-247.25	12.25	-0.05	-0.01	0.56
31850	8.01	-246.15	15.44	-0.01	0.03	0.66
31868	7.05	-244.75	17.58	-0.01	0.05	0.81
31886	3.98	-243.67	19.68	-0.00	0.04	0.89
31904	2.47	-240.97	17.52	0.05	0.04	1.04
31923	0.40	-235.11	17.14	0.05	0.07	1.19
31940	-2.93	-231.90	17.14	0.01	0.06	1.40
31958	-3.30	-232.73	15.61	-0.00	0.03	1.49
31978	-1.11	-239.59	14.28	-0.06	0.05	1.64
31996	-3.80	-253.36	20.95	-0.06	0.11	1.85
32016	-8.07	-269.50	31.86	-0.12	0.01	2.09
32034	-3.74	-296.83	35.45	-0.19	-0.00	2.24
32054	-3.19	-325.04	38.22	-0.08	0.12	2.37
32073	-12.88	-339.95	46.33	0.02	0.10	2.48
32091	-16.57	-342.88	48.58	0.08	0.01	2.51
32110	-16.82	-344.25	46.28	0.10	0.02	2.54
32128	-17.15	-340.36	44.95	0.20	0.11	2.67
32146	-24.06	-320.59	46.28	0.37	0.09	2.88
32165	-30.85	-290.76	36.54	0.30	0.10	2.94
32183	-36.38	-277.13	17.55	0.13	0.10	2.92
32201	-38.10	-277.83	7.20	0.08	0.09	2.89
32220	-35.75	-286.65	-17.36	0.06	0.03	2.82
32238	-22.32	-297.07	-49.50	0.03	-0.03	2.74
32258	-2.64	-310.18	-78.22	-0.00	0.02	2.55
32278	7.00	-325.85	-94.27	-0.05	0.11	2.37
32296	7.83	-343.46	-98.71	-0.04	0.15	2.13
32315	6.44	-350.31	-96.68	0.06	0.06	1.86
32333	10.12	-353.53	-83.83	0.14	0.01	1.71
32351	20.98	-336.73	-58.64	0.31	-0.04	1.42
32370	31.14	-299.94	-25.33	0.43	-0.05	1.17
32389	36.50	-250.37	8.26	0.49	-0.02	0.98
32407	36.56	-223.62	23.07	0.47	0.01	0.83
32425	32.76	-172.38	47.67	0.43	0.02	0.76
32442	24.87	-128.85	65.69	0.36	0.04	0.66
32460	14.79	-91.71	77.76	0.35	0.04	0.60
32478	5.83	-52.20	83.51	0.43	0.02	0.57
32496	2.96	-29.07	83.76	0.48	-0.00	0.56
32515	2.46	26.20	77.67	0.59	-0.04	0.57
32532	8.19	93.08	63.20	0.67	-0.09	0.58
32549	20.22	166.55	44.31	0.71	-0.13	0.57
32568	27.92	204.25	35.16	0.76	-0.13	0.63
32586	43.81	282.90	19.82	0.77	-0.12	0.66
32604	56.76	361.79	7.80	0.75	-0.10	0.75
32622	63.20	435.53	0.95	0.71	-0.00	0.92
32639	62.23	469.53	-0.18	0.67	0.05	1.06
32658	53.71	499.98	1.31	0.46	0.12	1.46
32675	40.97	499.89	2.72	0.05	0.12	1.95
32692	27.28	499.08	-1.16	-0.43	0.15	2.49
32711	20.00	474.43	-6.07	-0.78	0.11	2.83
32729	10.10	364.09	-22.95	-0.83	0.06	2.87
32748	9.29	248.99	-44.19	-0.62	-0.02	2.82
32766	16.57	172.39	-61.19	-0.17	-0.04	2.81
32785	23.67	154.45	-73.12	0.35	0.04	2.87
32803	18.25	196.00	-82.92	0.65	0.15	2.72
32821	9.78	227.68	-84.93	0.62	0.17	2.60
32839	-13.00	282.84	-76.93	0.42	0.22	2.37
32857	-37.67	314.32	-59.23	0.24	0.17	2.18
32877	-52.35	327.01	-45.90	0.10	0.06	2.04
32895	-50.61	323.10	-39.99	-0.06	-0.08	1.92
32913	-43.49	314.64	-36.77	-0.12	-0.10	1.88
32933	-27.24	289.41	-27.74	-0.20	-0.06	1.78
32952	-16.59	261.86	-21.50	-0.14	-0.05	1.66
32972	-7.90	243.85	-19.67	-0.07	-0.05	1.48
32991	0.32	235.20	-17.61	0.01	-0.04	1.27
33009	4.56	235.87	-13.41	0.04	0.00	1.05
33027	1.56	238.07	-7.63	-0.01	0.03	0.83
33045	-1.31	237.20	-3.89	-0.03	0.03	0.73
33064	-7.75	232.57	5.29	-0.03	0.02	0.59
33083	-12.31	228.79	15.61	-0.03	-0.01	0.47
33101	-13.18	223.89	24.05	-0.07	-0.03	0.38
33121	-12.31	216.63	27.69	-0.06	-0.05	0.31
33139	-9.90	210.56	27.48	-0.07	-0.05	0.23
33158	-8.87	206.95	26.70	-0.11	-0.06	0.16
33177	-6.70	195.92	24.90	-0.12	-0.06	0.14
33196	-4.30	181.41	22.40	-0.14	-0.07	0.09
33215	-0.29	164.40	18.48	-0.16	-0.08	0.04
33233	4.06	147.13	12.89	-0.14	-0.07	-0.01
33252	7.42	132.63	6.71	-0.12	-0.07	-0.06
33271	9.54	118.07	1.53	-0.15	-0.06	-0.11
33290	10.51	109.88	-0.66	-0.16	-0.07	-0.14
33309	12.51	91.31	-4.38	-0.17	-0.07	-0.20
33328	13.84	73.20	-6.85	-0.16	-0.07	-0.25
33348	14.42	56.70	-8.51	-0.16	-0.06	-0.29
33366	13.79	39.34	-9.93	-0.18	-0.06	-0.33
33387	13.32	18.91	-10.42	-0.19	-0.06	-0.37
33405	11.75	-1.80	-10.09	-0.17	-0.05	-0.40
33424	8.68	-17.49	-9.16	-0.17	-0.05	-0.42
33444	5.52	-33.28	-7.49	-0.18	-0.05	-0.43
33464	1.77	-49.12	-5.34	-0.18	-0.05	-0.43
33485	-1.79	-65.29	-2.14	-0.18	-0.05	-0.43
33504	-3.33	-73.32	-0.56	-0.18	-0.05	-0.40
33525	-7.10	-96.18	4.26	-0.18	-0.06	-0.37
33544	-7.51	-103.61	5.84	-0.17	-0.06	-0.33
33564	-7.81	-117.80	8.59	-0.16	-0.05	-0.28
33584	-7.45	-130.37	10.33	-0.15	-0.06	-0.25
33603	-5.69	-140.99	10.74	-0.13	-0.07	-0.18
33624	-2.29	-148.85	9.67	-0.09	-0.06	-0.11
33643	1.02	-152.92	7.32	-0.05	-0.06	-0.04
33663	4.75	-152.98	5.13	-0.02	-0.06	0.06
33681	9.49	-152.18	3.97	-0.03	-0.06	0.15
33700	14.14	-153.56	2.72	-0.03	-0.05	0.25
33719	17.61	-155.14	0.38	-0.01	-0.04	0.37
33738	19.29	-155.58	-0.89	-0.01	-0.04	0.50
33757	23.19	-157.58	-1.77	-0.06	-0.00	0.63
33776	24.37	-165.47	-0.18	-0.07	0.02	0.70
33796	20.07	-176.82	1.82	-0.08	0.07	0.84
33814	12.39	-190.06	2.33	-0.10	0.08	1.00
33832	6.35	-206.62	1.77	-0.10	0.09	1.20
33851	0.21	-222.27	2.27	-0.06	0.10	1.38
33869	-2.93	-228.27	3.19	-0.03	0.09	1.49
33888	-7.26	-238.01	4.99	-0.02	0.05	1.70
33907	-8.39	-248.12	10.41	-0.01	-0.01	1.96
33926	-6.29	-258.53	24.43	-0.03	-0.01	2.13
33946	-7.26	-274.48	40.62	-0.12	-0.05	2.28
33965	-6.12	-300.06	45.62	-0.11	-0.10	2.43
33984	-2.15	-322.89	40.94	-0.07	-0.07	2.58
34004	-3.37	-344.09	33.89	-0.10	-0.01	2.69
34023	-8.74	-365.11	25.86	-0.03	-0.00	2.81
34043	-11.80	-372.06	21.29	0.08	0.05	2.91
34061	-20.07	-375.06	12.59	0.13	0.07	2.94
34078	-29.31	-366.07	4.58	0.21	0.05	2.95
34097	-29.56	-350.97	-5.62	0.25	-0.05	2.94
34116	-18.37	-334.30	-16.27	0.24	-0.11	2.93
34136	-3.65	-319.44	-26.00	0.22	-0.10	2.92
34155	9.61	-311.48	-34.67	0.10	-0.08	2.82
34174	15.70	-312.48	-37.99	0.07	-0.06	2.73
34193	24.54	-321.40	-38.25	-0.12	-0.03	2.56
34212	29.69	-354.52	-25.82	-0.34	0.03	2.30
34231	26.98	-400.38	-4.52	-0.26	0.07	1.98
34250	21.01	-424.03	20.80	0.07	0.01	1.67
34268	18.28	-402.83	44.65	0.44	-0.05	1.31
34286	18.14	-377.44	54.53	0.59	-0.07	1.00
34304	18.62	-314.36	66.64	0.60	-0.07	0.87
34323	17.88	-250.43	66.35	0.55	-0.05	0.69
34341	15.79	-194.43	56.24	0.46	-0.03	0.56
34360	12.05	-148.35	41.09	0.41	-0.03	0.47
34378	10.65	-127.09	32.41	0.43	-0.05	0.42
34396	10.31	-82.24	14.43	0.47	-0.05	0.40
34415	12.22	-29.80	-3.37	0.53	-0.07	0.36
34433	16.33	28.99	-18.63	0.58	-0.09	0.34
34452	23.10	94.62	-28.69	0.69	-0.12	0.33
34470	32.32	176.12	-29.28	0.87	-0.12	0.33
34488	36.45	223.57	-27.13	0.91	-0.11	0.32
34507	42.51	321.18	-22.20	0.93	-0.08	0.33
34525	44.13	418.11	-14.95	0.94	-0.02	0.38
34544	39.89	499.98	-3.92	0.95	0.05	0.54
34562	32.38	499.39	7.87	0.76	0.05	0.82
34579	28.81	499.97	11.73	0.58	0.05	1.05
34597	23.44	499.98	13.75	0.10	0.03	1.74
34615	16.62	499.98	10.62	-0.40	0.03	2.60
34633	16.22	495.27	-1.95	-1.05	-0.15	3.12
34651	23.53	437.74	-14.18	-1.22	-0.21	3.19
34671	42.31	266.17	-49.48	-1.07	-0.14	3.06
34689	48.90	142.38	-86.79	-0.47	-0.01	2.88
34707	40.51	97.56	-114.03	0.24	0.12	2.82
34726	16.72	136.49	-128.81	0.83	0.23	2.75
34744	-0.23	180.13	-130.89	0.86	0.25	2.48
34763	-37.05	272.58	-125.37	0.70	0.21	2.31
34781	-64.83	328.22	-106.55	0.33	0.13	2.07
34799	-76.68	343.57	-79.48	0.07	0.00	1.94
34818	-69.56	335.75	-54.66	-0.01	-0.10	1.87
34837	-51.32	322.11	-33.55	-0.08	-0.13	1.77
34857	-30.75	298.29	-11.57	-0.19	-0.11	1.70
34876	-21.94	282.78	-0.20	-0.16	-0.03	1.60
34894	-12.60	254.49	20.71	-0.11	0.01	1.52
34912	-12.13	238.74	37.06	0.01	0.04	1.33
34931	-13.49	236.18	49.18	0.05	0.02	1.13
34949	-13.08	234.97	57.56	-0.01	-0.01	0.92
34968	-12.19	232.18	60.12	-0.05	-0.03	0.75
34986	-9.29	223.74	61.08	-0.05	-0.04	0.68
35004	-5.19	214.28	58.32	-0.07	-0.05	0.55
35024	-0.60	203.32	51.77	-0.08	-0.06	0.44
35042	4.27	193.66	40.91	-0.05	-0.08	0.36
35061	9.41	187.07	26.99	-0.06	-0.08	0.27
35079	11.75	183.20	19.47	-0.13	-0.06	0.20
35098	14.11	169.89	4.50	-0.15	-0.05	0.16
35117	13.34	152.71	-9.16	-0.14	-0.05	0.09
35135	11.52	139.53	-19.76	-0.11	-0.04	0.02
35155	8.06	128.92	-27.51	-0.13	-0.02	-0.04
35174	3.72	114.43	-33.13	-0.18	-0.03	-0.11
35194	0.38	95.26	-36.54	-0.19	-0.04	-0.18
35213	-1.34	75.45	-37.92	-0.19	-0.04	-0.23
35232	-3.25	56.09	-37.49	-0.19	-0.05	-0.29
35253	-4.65	36.83	-35.16	-0.21	-0.05	-0.34
35272	-5.29	27.37	-32.81	-0.21	-0.05	-0.39
35292	-5.52	8.19	-26.47	-0.21	-0.05	-0.41
35311	-6.45	-8.12	-18.78	-0.18	-0.05	-0.45
35332	-7.19	-21.03	-9.77	-0.17	-0.05	-0.46
35352	-7.78	-32.85	0.08	-0.17	-0.05	-0.48
35371	-7.71	-43.64	10.03	-0.17	-0.06	-0.49
35391	-6.73	-53.39	17.04	-0.16	-0.06	-0.47
35410	-5.10	-61.94	21.47	-0.16	-0.06	-0.44
35431	-2.81	-72.24	24.46	-0.18	-0.07	-0.41
35450	0.31	-83.66	25.70	-0.17	-0.07	-0.36
35469	3.45	-93.63	25.19	-0.14	-0.07	-0.30
35489	7.22	-101.01	23.44	-0.10	-0.06	-0.24
35507	10.45	-104.92	20.86	-0.08	-0.04	-0.16
35527	11.92	-107.91	16.94	-0.08	-0.03	-0.10
35546	12.56	-110.28	14.92	-0.05	-0.03	-0.02
35566	13.47	-113.49	11.00	-0.04	-0.03	0.02
35584	13.58	-115.01	7.32	-0.02	-0.02	0.12
35602	13.89	-116.93	4.09	-0.03	-0.02	0.24
35622	13.72	-121.32	2.76	-0.05	-0.01	0.34
35640	12.25	-129.47	2.93	-0.08	0.01	0.45
35659	9.14	-142.03	3.27	-0.09	0.02	0.58
35677	7.42	-149.03	3.36	-0.08	0.02	0.66
35696	2.26	-161.27	3.88	-0.06	0.07	0.84
35714	-6.44	-173.32	5.45	-0.09	0.08	0.99
35732	-12.83	-190.72	5.58	-0.11	0.03	1.13
35752	-13.53	-210.63	1.59	-0.10	0.01	1.30
35771	-12.74	-220.41	-1.14	-0.11	0.00	1.44
35790	-10.38	-240.59	-4.29	-0.14	0.01	1.58
35809	-8.22	-264.51	-1.40	-0.15	0.00	1.65
35829	-4.18	-290.82	1.08	-0.13	-0.04	1.78
35848	3.95	-312.90	2.62	-0.04	-0.06	1.96
35867	9.52	-320.48	9.49	0.13	0.03	2.18
35885	6.09	-311.89	19.21	0.18	0.04	2.30
35903	4.56	-307.24	22.74	0.13	-0.01	2.40
35921	5.36	-303.13	29.02	0.11	-0.02	2.48
35940	5.52	-302.38	36.41	0.15	0.06	2.63
35958	-3.28	-295.62	40.80	0.23	0.08	2.73
35976	-10.44	-284.38	33.78	0.20	0.03	2.87
35994	-10.36	-281.40	28.12	0.06	-0.00	2.90
36013	-6.06	-288.06	17.87	-0.01	0.01	2.87
36032	-2.75	-308.27	4.65	0.00	0.04	2.80
36051	-0.21	-322.81	-18.28	0.10	0.05	2.77
36069	2.82	-325.13	-45.14	0.16	0.07	2.71
36087	7.86	-322.45	-66.12	0.15	0.04	2.57
36106	11.73	-321.78	-72.81	0.08	0.05	2.34
36124	18.42	-325.68	-78.29	0.04	0.02	2.23
36142	28.75	-334.85	-70.91	0.03	-0.04	2.00
36162	42.28	-339.52	-49.47	0.09	-0.05	1.81
36180	50.80	-334.01	-19.42	0.19	-0.02	1.64
36199	50.19	-312.03	14.31	0.35	0.04	1.39
36217	46.16	-293.56	31.05	0.42	0.05	1.26
36234	35.46	-246.78	59.46	0.47	0.04	1.05
36253	25.10	-197.48	78.74	0.43	0.02	0.87
36270	16.46	-153.56	90.77	0.39	0.00	0.74
36289	13.23	-133.09	94.22	0.40	-0.01	0.65
36307	8.87	-90.91	94.70	0.42	-0.02	0.62
36325	8.47	-43.26	86.43	0.50	-0.05	0.59
36343	12.83	12.82	70.21	0.56	-0.06	0.57
36361	20.45	75.82	47.20	0.65	-0.08	0.58
36380	25.10	110.63	33.65	0.69	-0.09	0.60
36398	35.60	186.69	4.12	0.79	-0.10	0.62
36415	46.26	272.49	-24.12	0.86	-0.12	0.65
36434	57.94	362.67	-44.04	0.89	-0.11	0.72
36452	62.48	454.03	-49.96	0.89	0.00	0.85
36469	58.20	494.43	-49.15	0.84	0.08	0.99
36488	37.14	499.65	-41.67	0.49	0.20	1.40
36505	7.87	499.98	-25.94	-0.07	0.23	1.97
36524	-15.91	499.79	-12.36	-0.57	0.18	2.57
36542	-24.31	475.25	-12.65	-0.84	0.01	2.92
36561	-23.61	348.69	-25.82	-0.80	-0.10	2.96
36581	1.27	240.23	-41.52	-0.45	-0.19	2.94
36599	28.27	181.23	-57.79	0.00	-0.08	2.88
36618	41.40	178.36	-76.13	0.44	0.06	2.88
36636	34.97	228.62	-87.89	0.82	0.25	2.81
36654	22.69	268.86	-90.04	0.83	0.29	2.66
36672	-8.79	338.03	-90.06	0.46	0.29	2.29
36690	-38.19	358.98	-87.30	0.07	0.24	2.02
36708	-56.59	344.19	-79.56	-0.07	0.13	1.90
36727	-58.82	317.84	-71.88	-0.13	0.00	1.84
36746	-54.29	302.64	-69.49	-0.11	-0.04	1.77
36766	-40.70	274.06	-63.54	0.02	-0.01	1.67
36785	-28.46	261.11	-48.31	0.06	0.00	1.59
36802	-20.34	260.33	-26.86	0.09	0.03	1.38
36821	-18.74	261.28	-6.29	0.05	0.07	1.13
36839	-20.37	260.53	11.17	0.05	0.07	0.93
36857	-21.18	260.68	18.55	0.04	0.05	0.74
36875	-20.94	261.02	31.30	0.02	0.03	0.66
36894	-19.23	257.28	41.87	-0.03	0.02	0.54
36912	-16.83	247.57	49.67	-0.08	-0.00	0.45
36930	-13.34	232.74	53.59	-0.10	-0.02	0.37
36949	-11.20	224.37	52.92	-0.12	-0.06	0.31
36968	-5.22	205.95	46.75	-0.13	-0.06	0.29
36988	0.23	185.41	38.16	-0.16	-0.06	0.22
37005	3.94	160.25	31.42	-0.19	-0.06	0.12
37023	6.36	134.55	23.68	-0.16	-0.07	0.03
37042	8.18	115.13	13.66	-0.10	-0.07	-0.04
37060	8.82	108.23	9.09	-0.07	-0.06	-0.12
37081	8.82	97.82	1.74	-0.07	-0.05	-0.15
37099	7.90	87.22	-5.33	-0.08	-0.06	-0.21
37118	7.66	76.45	-11.87	-0.08	-0.07	-0.27
37138	6.26	68.21	-15.93	-0.06	-0.06	-0.32
37157	3.98	63.17	-17.12	-0.08	-0.07	-0.35
37176	4.00	52.75	-16.85	-0.10	-0.07	-0.39
37196	4.32	40.39	-15.96	-0.09	-0.07	-0.41
37214	2.47	29.98	-14.05	-0.07	-0.04	-0.42
37233	0.56	25.36	-12.74	-0.09	-0.04	-0.42
37252	-3.74	14.51	-9.77	-0.10	-0.05	-0.42
37272	-5.51	0.00	-5.89	-0.11	-0.06	-0.41
37293	-4.53	-16.40	-1.88	-0.12	-0.07	-0.38
37312	-3.01	-34.64	1.14	-0.15	-0.06	-0.33
37332	-1.82	-57.65	3.89	-0.16	-0.05	-0.29
37352	-2.17	-80.18	5.39	-0.13	-0.04	-0.24
37372	-3.97	-94.28	5.92	-0.13	-0.04	-0.19
37391	-3.65	-110.41	6.88	-0.15	-0.06	-0.14
37412	-0.73	-128.75	9.64	-0.16	-0.05	-0.06
37431	1.21	-146.85	14.08	-0.15	-0.03	0.05
37449	2.04	-163.10	18.89	-0.15	-0.03	0.15
37468	3.77	-179.38	22.60	-0.16	-0.04	0.24
37487	5.02	-188.13	24.31	-0.18	-0.03	0.32
37507	7.35	-207.52	27.63	-0.18	-0.02	0.36
37525	7.54	-226.07	28.98	-0.13	-0.01	0.44
37544	6.53	-238.28	28.50	-0.06	0.01	0.58
37562	3.92	-243.10	26.26	-0.01	0.05	0.75
37581	-2.62	-242.68	21.97	0.03	0.09	0.89
37600	-6.59	-241.71	19.13	0.04	0.07	1.07
37618	-12.92	-239.90	12.51	0.02	0.05	1.16
37637	-16.30	-244.20	4.18	-0.03	0.08	1.32
37655	-20.69	-256.36	-2.90	-0.09	0.08	1.45
37674	-18.72	-275.18	-6.30	-0.11	-0.00	1.61
37694	-9.81	-299.06	-7.23	-0.15	0.03	1.80
37713	-4.46	-324.78	-6.20	-0.10	0.08	2.00
37733	1.36	-343.55	-2.40	-0.04	0.03	2.20
37751	5.78	-350.39	0.69	-0.01	0.03	2.29
37769	13.17	-359.09	10.48	0.08	0.09	2.43
37788	11.51	-352.63	25.48	0.28	0.15	2.48
37806	4.75	-327.35	37.83	0.36	0.12	2.60
37824	-1.13	-301.48	44.16	0.27	0.16	2.71
37842	-5.25	-293.00	46.16	0.26	0.17	2.75
37860	-12.21	-275.96	47.64	0.33	0.13	2.87
37879	-14.76	-257.61	43.40	0.21	0.11	2.98
37897	-13.05	-262.18	33.80	-0.03	0.10	3.00
37916	-9.77	-288.48	19.91	-0.05	0.10	2.90
37935	-7.93	-300.66	11.03	0.03	0.08	2.74
37953	-2.66	-316.18	-10.07	0.04	0.09	2.61
37972	0.92	-325.71	-30.65	0.09	0.13	2.31
37990	2.47	-324.95	-46.69	0.17	0.11	2.06
38009	5.84	-315.57	-55.88	0.16	0.08	1.83
38027	10.47	-306.98	-54.61	0.12	0.06	1.63
38045	12.82	-303.80	-49.76	0.11	0.05	1.53
38064	18.52	-295.94	-32.64	0.18	-0.00	1.32
38082	24.73	-272.06	-10.12	0.36	-0.02	1.15
38102	28.79	-227.77	13.06	0.47	-0.02	1.00
38120	29.75	-173.02	33.62	0.50	-0.02	0.85
38138	28.98	-145.14	42.25	0.44	0.01	0.73
38156	24.67	-94.42	55.51	0.42	0.01	0.69
38173	19.26	-48.86	62.99	0.42	0.01	0.63
38192	16.19	-3.14	64.25	0.45	-0.02	0.61
38210	17.93	46.30	60.78	0.53	-0.05	0.62
38228	20.52	74.58	57.24	0.59	-0.07	0.62
38246	28.02	140.87	46.01	0.71	-0.09	0.64
38264	38.36	218.57	30.24	0.78	-0.10	0.70
38282	48.81	298.39	15.30	0.76	-0.08	0.81
38300	53.63	336.64	9.80	0.75	-0.07	0.87
38317	58.12	408.00	3.14	0.71	0.03	1.05
38335	51.28	468.03	0.70	0.53	0.11	1.33
38352	36.09	494.84	-1.19	0.20	0.16	1.71
38369	26.84	492.60	-3.31	0.09	0.17	1.97
38388	10.76	467.94	-10.54	-0.20	0.10	2.45
38406	4.56	401.76	-20.63	-0.59	0.02	2.72
38425	6.26	306.06	-37.03	-0.51	-0.02	2.84
38443	8.54	265.73	-47.94	-0.11	-0.05	2.86
38462	17.56	222.82	-71.88	0.09	-0.09	2.85
38480	33.11	227.26	-94.41	0.37	-0.05	2.79
38498	36.04	263.20	-107.77	0.54	0.14	2.68
38518	14.21	314.68	-108.84	0.52	0.30	2.52
38536	-17.49	356.84	-105.36	0.33	0.26	2.36
38554	-30.78	368.64	-102.75	0.19	0.23	2.27
38573	-49.74	368.41	-93.96	-0.06	0.13	2.14
38591	-54.26	343.69	-80.18	-0.17	0.03	2.06
38611	-46.28	310.39	-64.45	-0.19	-0.03	1.97
38630	-33.02	281.02	-48.78	-0.15	-0.05	1.78
38650	-18.78	258.32	-31.10	-0.08	-0.04	1.54
38668	-9.02	245.16	-12.34	-0.04	0.01	1.29
38687	-6.99	240.39	-3.11	-0.03	0.04	1.10
38707	-7.52	232.35	13.99	0.03	0.05	0.94
38724	-10.79	231.09	28.52	0.04	0.04	0.85
38741	-13.23	235.66	40.15	0.07	0.04	0.71
38760	-16.34	241.50	50.19	0.02	0.03	0.57
38777	-17.46	242.45	53.76	-0.01	0.02	0.50
38796	-17.78	239.21	56.32	-0.04	-0.02	0.39
38815	-14.34	232.41	52.78	-0.07	-0.04	0.31
38833	-9.46	222.27	44.56	-0.09	-0.06	0.25
38853	-2.96	208.76	33.63	-0.12	-0.08	0.19
38871	4.41	191.42	21.58	-0.15	-0.09	0.10
38890	8.07	180.98	15.84	-0.18	-0.09	0.05
38907	13.50	155.73	5.16	-0.23	-0.06	-0.06
38927	14.95	125.41	-3.34	-0.24	-0.05	-0.12
38946	13.35	97.69	-9.67	-0.18	-0.03	-0.18
38965	9.90	79.68	-15.63	-0.11	-0.03	-0.25
38985	7.00	67.29	-20.32	-0.14	-0.06	-0.33
39003	6.96	50.87	-22.87	-0.17	-0.07	-0.40
39024	6.61	35.45	-23.03	-0.13	-0.06	-0.45
39043	6.03	29.68	-22.66	-0.10	-0.04	-0.47
39062	3.88	22.67	-21.76	-0.10	-0.05	-0.48
39081	0.58	16.68	-19.53	-0.15	-0.05	-0.50
39100	-0.26	0.14	-15.96	-0.15	-0.05	-0.52
39121	-2.14	-12.44	-11.37	-0.11	-0.05	-0.52
39140	-5.14	-16.27	-7.28	-0.10	-0.05	-0.51
39160	-6.96	-21.07	-4.12	-0.11	-0.06	-0.49
39181	-7.22	-30.62	-0.90	-0.12	-0.06	-0.47
39200	-6.18	-41.14	2.17	-0.10	-0.06	-0.44
39221	-4.96	-48.78	3.65	-0.10	-0.05	-0.38
39240	-4.47	-57.69	3.80	-0.10	-0.04	-0.31
39259	-4.20	-66.42	4.67	-0.10	-0.04	-0.24
39279	-1.48	-80.73	6.21	-0.12	-0.04	-0.16
39298	1.53	-96.22	7.64	-0.14	-0.03	-0.08
39318	3.88	-111.60	9.66	-0.15	-0.02	0.02
39337	4.94	-121.77	11.03	-0.16	-0.01	0.07
39356	5.28	-142.94	14.19	-0.21	-0.01	0.16
39374	5.75	-169.14	16.01	-0.23	-0.01	0.22
39393	6.44	-194.32	16.74	-0.22	-0.02	0.29
39412	8.48	-218.72	17.70	-0.18	-0.02	0.37
39431	11.43	-237.21	18.49	-0.13	-0.02	0.47
39451	14.80	-248.81	17.90	-0.05	-0.00	0.59
39469	15.73	-250.99	17.20	0.00	0.04	0.70
39486	14.30	-250.85	16.94	0.01	0.05	0.76
39505	11.05	-249.34	17.99	0.00	0.05	0.91
39522	9.72	-249.34	16.72	0.02	0.04	1.08
39541	10.16	-247.54	13.14	0.07	0.08	1.22
39559	9.32	-245.29	11.09	0.08	0.11	1.29
39576	6.03	-241.42	7.78	0.04	0.09	1.41
39595	7.22	-245.10	4.73	0.00	0.05	1.57
39612	9.26	-249.01	3.17	0.07	0.10	1.75
39631	10.68	-252.27	1.72	0.10	0.14	1.85
39649	5.00	-251.97	3.80	0.05	0.19	2.05
39666	-2.64	-261.73	8.99	-0.02	0.18	2.24
39686	-9.34	-277.01	14.39	0.04	0.19	2.44
39704	-11.81	-281.72	15.81	0.11	0.15	2.67
39723	-12.89	-285.40	17.56	0.12	0.11	2.78
39741	-6.00	-290.33	19.74	0.06	0.08	2.93
39759	4.79	-301.42	21.87	0.07	0.09	3.02
39777	15.18	-311.48	21.73	0.04	0.11	3.05
39795	19.39	-318.74	20.92	-0.01	0.15	3.03
39813	22.11	-337.46	19.71	0.03	0.19	3.01
39831	15.34	-348.01	18.17	0.13	0.23	2.97
39848	4.12	-346.47	17.32	0.19	0.21	2.89
39867	-3.88	-341.51	14.79	0.14	0.16	2.77
39885	-5.16	-341.34	12.73	0.11	0.13	2.69
39903	-4.82	-343.52	9.52	0.13	0.09	2.52
39921	-0.20	-342.53	4.85	0.07	0.05	2.34
39940	5.40	-353.64	-1.08	-0.10	0.05	2.07
39959	10.13	-377.46	-1.65	-0.11	0.03	1.77
39977	12.12	-387.19	0.56	0.13	-0.01	1.47
39996	17.20	-384.54	8.76	0.28	-0.04	1.31
40014	24.40	-345.03	18.84	0.53	-0.06	1.04
40032	29.72	-283.92	26.32	0.58	-0.04	0.83
40051	29.01	-222.17	31.33	0.53	0.03	0.67
40069	25.62	-193.83	33.36	0.46	0.06	0.56
40087	15.70	-142.73	36.39	0.44	0.06	0.52
40105	5.54	-96.34	37.06	0.44	0.03	0.46
40122	0.18	-48.03	33.80	0.48	-0.01	0.43
40141	0.34	6.56	27.01	0.57	-0.04	0.42
40159	2.21	37.58	22.90	0.62	-0.06	0.41
40177	8.82	109.01	13.28	0.75	-0.09	0.40
40195	19.18	193.01	2.73	0.86	-0.12	0.39
40212	31.75	282.76	-5.65	0.84	-0.13	0.38
40231	38.59	325.55	-7.60	0.83	-0.12	0.40
40249	50.05	409.97	-5.66	0.92	-0.05	0.49
40268	52.57	496.96	0.53	0.97	0.02	0.63
40285	49.90	499.48	10.07	0.76	0.11	0.93
40302	45.55	499.85	16.69	0.33	0.23	1.47
40320	27.05	499.98	26.73	0.10	0.26	1.81
40337	5.23	499.98	23.07	-0.32	0.17	2.52
40355	-2.26	493.38	8.87	-0.84	0.00	2.90
40374	1.24	437.87	-2.94	-0.99	-0.16	3.01
40392	23.12	292.97	-37.26	-0.92	-0.19	2.95
40411	50.40	175.13	-71.90	-0.51	-0.14	2.83
40429	68.24	120.85	-97.61	0.14	0.03	2.84
40447	64.03	147.35	-118.77	0.71	0.25	2.83
40466	32.20	227.08	-130.80	0.79	0.42	2.58
40484	8.74	267.06	-130.17	0.65	0.43	2.40
40501	-36.07	319.99	-115.91	0.33	0.33	2.13
40520	-66.27	333.76	-98.91	0.07	0.19	1.96
40537	-76.20	327.68	-88.13	0.05	0.01	1.89
40556	-71.99	324.92	-83.01	0.03	-0.07	1.84
40575	-50.57	314.53	-65.99	-0.10	-0.14	1.70
40593	-25.44	289.34	-43.62	-0.21	-0.11	1.59
40612	-10.65	256.18	-22.22	-0.19	-0.01	1.42
40631	-3.98	230.93	-0.23	-0.08	-0.00	1.26
40649	0.14	221.01	21.79	-0.01	0.01	1.10
40667	1.05	219.48	31.43	-0.00	0.02	1.02
40685	0.75	217.71	45.72	-0.02	0.03	0.85
40702	-0.78	214.71	53.80	-0.03	0.02	0.70
40720	-2.93	212.05	57.17	-0.01	0.02	0.57
40738	-4.20	212.27	56.93	-0.00	0.02	0.51
40757	-5.78	213.30	51.86	-0.02	-0.01	0.41
40775	-3.83	211.43	41.96	-0.06	-0.06	0.31
40793	1.56	204.62	30.14	-0.09	-0.07	0.23
40811	4.62	200.10	24.40	-0.11	-0.07	0.17
40829	9.60	188.83	13.79	-0.13	-0.07	0.14
40847	14.45	173.46	4.43	-0.16	-0.08	0.08
40865	18.23	154.69	-4.09	-0.18	-0.07	0.01
40884	19.50	133.41	-11.70	-0.19	-0.05	-0.07
40903	18.94	122.68	-15.00	-0.17	-0.04	-0.14
40921	16.53	103.41	-19.97	-0.16	-0.04	-0.17
40940	12.73	87.46	-23.59	-0.15	-0.04	-0.22
40960	8.99	71.11	-26.70	-0.17	-0.04	-0.28
40979	4.82	53.63	-29.45	-0.16	-0.05	-0.34
40997	1.05	36.99	-29.89	-0.15	-0.06	-0.39
41016	-3.60	22.58	-28.32	-0.15	-0.05	-0.41
41035	-8.68	8.65	-25.56	-0.15	-0.04	-0.43
41054	-10.86	0.73	-24.12	-0.15	-0.04	-0.44
41073	-14.37	-14.13	-20.80	-0.14	-0.06	-0.44
41094	-16.13	-26.63	-17.00	-0.13	-0.06	-0.43
41113	-16.86	-37.90	-12.51	-0.13	-0.07	-0.40
41133	-15.91	-49.10	-7.55	-0.14	-0.08	-0.39
41154	-12.85	-63.26	-2.79	-0.15	-0.08	-0.35
41174	-8.71	-78.11	0.93	-0.15	-0.08	-0.31
41195	-4.85	-92.39	3.88	-0.14	-0.07	-0.26
41214	-1.60	-106.02	5.83	-0.13	-0.06	-0.20
41234	1.28	-116.41	7.69	-0.10	-0.06	-0.13
41252	5.95	-125.05	9.37	-0.08	-0.07	-0.06
41273	10.54	-133.00	10.28	-0.08	-0.05	0.04
41291	13.92	-141.95	10.83	-0.10	-0.03	0.13
41309	15.40	-147.93	10.99	-0.13	-0.03	0.23
41329	18.37	-163.54	10.62	-0.13	-0.03	0.28
41347	21.56	-178.38	9.26	-0.10	-0.02	0.39
41367	23.50	-190.20	8.30	-0.07	0.02	0.52
41385	20.94	-198.72	7.49	-0.04	0.07	0.64
41404	16.28	-204.56	5.66	-0.00	0.05	0.79
41422	14.01	-207.86	3.98	0.00	0.07	0.93
41439	12.50	-210.19	3.97	-0.02	0.09	0.99
41458	6.15	-219.80	5.46	-0.04	0.14	1.13
41476	-1.04	-230.24	6.88	0.01	0.10	1.32
41495	-1.39	-236.34	8.58	-0.00	0.04	1.51
41513	3.34	-249.66	12.18	-0.10	0.07	1.68
41531	5.10	-261.37	14.47	-0.15	0.07	1.77
41550	8.65	-292.94	18.07	-0.18	0.05	1.97
41568	13.47	-322.85	17.44	-0.09	0.03	2.17
41587	19.97	-342.04	16.54	-0.05	0.05	2.33
41605	25.25	-359.30	17.18	-0.03	0.07	2.44
41623	27.04	-366.23	16.04	0.05	0.10	2.51
41642	26.35	-362.44	11.12	0.28	0.17	2.65
41659	18.62	-338.64	8.35	0.28	0.19	2.74
41677	11.90	-323.44	9.58	0.17	0.16	2.80
41696	9.60	-320.31	9.26	0.23	0.14	2.83
41713	7.75	-309.89	3.88	0.24	0.12	2.84
41731	14.27	-297.03	-2.33	0.21	0.04	2.83
41749	26.47	-290.57	-4.99	0.15	0.05	2.79
41767	35.05	-290.05	-8.62	0.12	0.11	2.70
41787	36.59	-291.06	-10.56	0.04	0.14	2.55
41805	36.47	-299.07	-11.87	0.02	0.14	2.44
41824	34.32	-311.34	-8.39	0.03	0.12	2.23
41842	36.15	-318.33	1.86	0.06	0.06	2.05
41859	40.82	-320.92	18.72	0.09	0.04	1.84
41878	42.51	-320.08	28.98	0.10	0.05	1.72
41895	40.12	-315.90	51.48	0.12	0.07	1.47
41914	34.15	-302.41	72.17	0.28	0.02	1.22
41932	29.28	-267.85	86.62	0.43	-0.00	1.01
41950	26.78	-243.96	90.94	0.51	-0.01	0.85
41968	21.76	-188.98	93.20	0.52	0.00	0.79
41986	15.99	-131.48	86.56	0.53	0.01	0.69
42005	12.15	-73.56	71.30	0.55	-0.02	0.62
42023	13.41	-13.99	49.03	0.56	-0.05	0.58
42041	15.35	15.98	36.51	0.58	-0.05	0.56
42058	19.59	77.47	10.16	0.61	-0.06	0.56
42076	26.31	143.63	-14.71	0.66	-0.10	0.56
42094	35.87	213.44	-32.61	0.68	-0.11	0.57
42112	42.62	283.95	-40.16	0.70	-0.06	0.64
42130	42.97	319.58	-40.16	0.74	-0.02	0.71
42148	37.34	397.25	-34.12	0.83	0.03	0.88
42165	27.16	474.99	-20.23	0.69	0.09	1.09
42183	20.36	499.98	-11.76	0.35	0.14	1.42
42200	4.10	499.60	2.11	0.18	0.16	1.68
42217	-11.76	499.98	8.50	-0.18	0.08	2.21
42235	-12.30	452.99	4.10	-0.57	-0.10	2.63
42253	-4.39	404.68	-2.98	-0.70	-0.17	2.74
42272	18.43	294.30	-23.30	-0.70	-0.14	2.73
42291	36.79	201.10	-47.73	-0.34	-0.08	2.69
42310	46.83	161.07	-68.79	0.17	0.01	2.69
42328	44.68	180.83	-86.06	0.57	0.13	2.67
42345	37.60	207.70	-92.12	0.68	0.20	2.62
42362	10.22	274.63	-92.30	0.66	0.32	2.44
42380	-25.70	331.63	-80.32	0.43	0.29	2.25
42398	-53.27	354.57	-64.80	0.08	0.17	2.14
42416	-60.17	351.03	-56.78	-0.05	0.10	2.12
42434	-59.14	324.91	-41.11	-0.19	-0.03	2.08
42453	-41.55	285.93	-27.42	-0.29	-0.11	1.94
42472	-18.55	237.90	-17.82	-0.34	-0.10	1.78
42490	-3.40	193.66	-13.47	-0.18	-0.01	1.66
42509	0.85	174.00	-11.37	0.03	0.06	1.46
42527	-0.11	174.30	-10.39	0.09	0.07	1.35
42545	-5.39	182.86	-8.35	0.08	0.07	1.13
42563	-13.64	189.18	-4.99	0.01	0.07	0.96
42581	-20.34	192.02	0.70	0.03	0.03	0.82
42599	-22.22	195.13	4.44	0.05	0.02	0.74
42619	-24.48	206.44	10.74	0.07	0.00	0.60
42636	-24.20	217.24	14.43	0.04	-0.03	0.49
42654	-20.63	224.58	14.89	0.00	-0.06	0.39
42673	-14.63	226.00	13.03	-0.06	-0.07	0.30
42691	-11.63	223.98	11.49	-0.10	-0.08	0.21
42711	-5.60	216.00	8.03	-0.12	-0.08	0.16
42730	-0.12	204.59	5.94	-0.15	-0.07	0.12
42748	3.37	187.73	5.87	-0.19	-0.05	0.07
42767	5.08	166.76	6.41	-0.21	-0.05	-0.00
42785	5.20	142.88	7.64	-0.25	-0.04	-0.07
42805	4.35	115.04	9.38	-0.26	-0.04	-0.13
42823	4.18	99.96	9.95	-0.25	-0.04	-0.18
42842	2.93	73.99	9.89	-0.24	-0.04	-0.21
42861	1.91	50.54	8.51	-0.24	-0.05	-0.28
42880	1.88	28.08	7.39	-0.24	-0.06	-0.36
42899	0.69	7.14	7.22	-0.24	-0.04	-0.43
42918	-1.59	-10.70	7.55	-0.22	-0.04	-0.47
42938	-3.22	-24.41	7.37	-0.22	-0.06	-0.49
42957	-2.46	-38.53	7.20	-0.24	-0.07	-0.49
42977	-0.78	-51.99	7.55	-0.20	-0.06	-0.50
42997	1.10	-59.80	9.37	-0.16	-0.07	-0.48
43016	2.09	-62.01	10.79	-0.18	-0.07	-0.47
43036	3.92	-67.72	12.19	-0.18	-0.06	-0.46
43055	6.00	-75.78	10.70	-0.19	-0.06	-0.44
43074	7.86	-82.90	8.76	-0.17	-0.05	-0.40
43093	9.14	-89.89	7.89	-0.16	-0.04	-0.36
43113	9.32	-95.18	6.94	-0.15	-0.04	-0.31
43133	9.75	-100.10	4.90	-0.11	-0.03	-0.23
43151	9.19	-102.04	1.63	-0.08	-0.02	-0.15
43171	8.26	-104.25	-2.33	-0.07	-0.02	-0.08
43190	6.30	-105.96	-5.04	-0.05	-0.00	-0.02
43211	3.23	-106.17	-6.88	-0.02	0.01	0.08
43229	1.72	-105.87	-7.78	-0.02	0.01	0.13
43247	-0.18	-107.01	-10.06	-0.04	-0.01	0.25
43268	0.58	-112.26	-12.05	-0.04	-0.02	0.35
43286	1.92	-118.90	-12.34	-0.04	-0.00	0.45
43306	2.79	-127.93	-11.14	-0.08	0.01	0.58
43325	4.71	-142.78	-10.68	-0.11	0.01	0.72
43345	7.11	-160.45	-10.59	-0.10	0.02	0.82
43363	8.76	-176.80	-8.18	-0.11	0.03	0.93
43381	9.31	-186.40	-5.66	-0.15	0.04	0.98
43401	9.38	-211.88	-0.14	-0.19	0.07	1.12
43419	8.13	-237.34	4.44	-0.09	0.05	1.27
43439	10.07	-250.35	7.34	0.02	0.05	1.47
43456	13.66	-255.72	11.22	-0.03	0.05	1.62
43474	15.82	-261.95	13.85	-0.06	0.07	1.79
43493	17.78	-279.01	19.67	-0.01	0.08	1.89
43511	17.58	-285.39	24.77	0.14	0.09	2.11
43529	19.87	-277.51	31.45	0.22	0.06	2.32
43547	26.86	-265.70	43.11	0.23	0.06	2.50
43565	29.05	-259.86	50.05	0.25	0.11	2.61
43583	25.44	-247.62	62.79	0.22	0.21	2.83
43600	10.80	-244.98	69.72	0.09	0.27	3.05
43618	-9.34	-263.02	69.81	-0.12	0.27	3.15
43638	-28.55	-301.77	65.02	-0.20	0.24	3.15
43656	-35.75	-323.64	60.23	-0.19	0.18	3.12
43675	-38.96	-363.51	43.99	-0.11	0.06	3.04
43694	-28.95	-388.20	22.48	0.06	0.01	2.88
43711	-16.45	-391.98	-4.65	0.20	0.04	2.75
43732	-6.45	-379.18	-35.25	0.28	0.10	2.58
43750	-3.71	-360.82	-59.27	0.23	0.15	2.47
43770	-5.25	-352.02	-72.54	0.07	0.17	2.37
43788	-7.34	-354.23	-76.07	-0.02	0.19	2.29
43808	-9.34	-372.79	-76.92	-0.14	0.08	2.08
43827	2.84	-391.83	-66.15	0.04	-0.07	1.77
43845	27.30	-381.09	-41.63	0.31	-0.14	1.42
43865	48.23	-340.07	-11.09	0.48	-0.07	1.08
43883	54.37	-285.52	17.50	0.50	0.02	0.82
43901	52.25	-257.98	30.09	0.46	0.09	0.66
43918	39.35	-205.83	51.33	0.45	0.11	0.61
43936	21.73	-155.98	67.12	0.46	0.10	0.54
43955	6.99	-104.16	76.26	0.49	0.05	0.48
43972	-0.09	-48.95	77.85	0.53	-0.01	0.44
43992	-0.95	-20.00	75.32	0.58	-0.06	0.40
44010	3.17	41.18	63.78	0.60	-0.09	0.39
44028	13.55	106.95	44.82	0.66	-0.12	0.36
44047	27.83	179.84	21.39	0.75	-0.13	0.35
44064	42.27	261.55	-0.98	0.83	-0.12	0.35
44083	48.48	305.02	-9.64	0.87	-0.11	0.36
44101	56.99	398.41	-19.32	0.99	-0.05	0.43
44119	57.31	495.61	-18.02	0.99	0.06	0.53
44138	45.24	499.47	-7.83	0.70	0.15	0.74
44155	36.61	499.82	-1.42	0.32	0.19	1.23
44173	18.28	499.98	8.58	0.18	0.22	1.59
44190	-3.97	499.98	9.11	-0.19	0.19	2.35
44208	-14.11	499.22	0.99	-0.80	-0.00	2.84
44227	-0.95	386.64	-17.82	-1.06	-0.14	3.07
44247	23.76	242.07	-40.89	-0.82	-0.13	2.95
44266	34.81	184.51	-50.96	-0.28	-0.07	2.85
44285	51.28	118.93	-66.91	0.02	-0.01	2.86
44302	51.54	129.50	-74.92	0.67	0.21	2.91
44321	25.07	209.20	-70.33	0.93	0.32	2.67
44339	-9.90	295.39	-57.31	0.60	0.24	2.25
44358	-22.98	322.56	-50.37	0.31	0.12	2.01
44376	-35.00	350.54	-38.70	0.20	0.05	1.94
44393	-31.04	355.58	-35.71	0.09	-0.03	1.88
44413	-17.47	350.66	-42.50	-0.01	-0.08	1.81
44432	-1.02	332.66	-45.17	-0.11	-0.07	1.69
44452	10.13	305.19	-39.99	-0.13	-0.00	1.57
44470	10.62	279.94	-33.26	-0.08	0.07	1.40
44490	7.84	269.90	-30.81	-0.06	0.07	1.23
44508	1.40	252.70	-26.08	-0.06	0.05	1.13
44526	-2.44	236.83	-18.92	-0.09	0.02	0.94
44546	-4.56	218.35	-10.07	-0.12	0.01	0.74
44564	-7.90	199.33	-0.70	-0.11	0.01	0.59
44583	-12.08	185.84	7.52	-0.07	0.00	0.48
44601	-13.84	181.43	10.67	-0.06	-0.01	0.43
44619	-15.78	174.41	13.46	-0.07	-0.03	0.32
44638	-15.34	166.15	11.67	-0.09	-0.06	0.21
44657	-13.17	157.90	8.18	-0.07	-0.05	0.14
44676	-11.29	152.22	3.80	-0.06	-0.06	0.05
44695	-8.18	148.25	-0.46	-0.06	-0.09	-0.04
44715	-6.13	146.24	-2.01	-0.07	-0.09	-0.12
44734	-1.54	141.72	-2.79	-0.08	-0.07	-0.18
44754	1.60	136.66	-2.11	-0.10	-0.06	-0.23
44774	2.59	130.00	-1.71	-0.10	-0.06	-0.25
44793	3.16	122.42	-1.16	-0.10	-0.06	-0.28
44813	3.75	113.42	-0.32	-0.11	-0.06	-0.32
44831	4.71	101.93	1.16	-0.13	-0.06	-0.35
44850	5.02	86.96	2.98	-0.15	-0.05	-0.39
44869	4.93	69.02	5.11	-0.16	-0.05	-0.42
44887	4.07	50.64	7.68	-0.15	-0.05	-0.44
44907	3.46	42.05	8.85	-0.13	-0.04	-0.45
44925	1.11	25.30	11.31	-0.13	-0.04	-0.45
44943	-2.06	8.38	12.80	-0.14	-0.04	-0.45
44964	-4.32	-9.32	13.41	-0.14	-0.04	-0.43
44983	-5.11	-27.21	13.06	-0.13	-0.04	-0.38
45003	-6.26	-44.62	13.08	-0.14	-0.03	-0.34
45022	-7.72	-63.67	13.67	-0.16	-0.02	-0.30
45042	-9.80	-85.43	14.51	-0.16	-0.02	-0.25
45062	-10.99	-105.03	15.11	-0.15	-0.02	-0.19
45081	-10.36	-121.52	16.11	-0.14	-0.04	-0.12
45102	-8.59	-137.94	17.58	-0.14	-0.02	-0.04
45121	-8.01	-153.15	19.26	-0.14	-0.01	0.04
45141	-7.89	-160.80	19.96	-0.14	-0.02	0.15
45160	-5.83	-177.09	19.74	-0.14	-0.04	0.21
45180	-1.24	-193.57	17.06	-0.13	-0.04	0.31
45199	2.73	-208.59	12.15	-0.12	-0.03	0.40
45217	7.20	-221.86	6.32	-0.10	-0.03	0.53
45236	11.20	-232.85	-0.20	-0.05	-0.01	0.67
45255	12.50	-238.39	-6.45	-0.01	0.04	0.80
45275	9.86	-239.91	-10.09	0.02	0.07	0.94
45293	7.54	-239.87	-11.28	0.03	0.09	1.08
45311	2.01	-239.72	-12.59	0.03	0.11	1.16
45330	-6.74	-239.17	-10.64	0.04	0.15	1.32
45348	-18.04	-241.85	-5.65	-0.02	0.13	1.45
45368	-24.96	-253.37	-2.18	-0.07	0.06	1.62
45387	-24.61	-270.36	-1.33	-0.07	0.03	1.81
45407	-21.39	-287.64	0.00	-0.06	0.01	2.04
45425	-18.04	-296.49	0.89	-0.10	-0.05	2.29
45444	-5.89	-318.08	0.96	-0.10	-0.07	2.39
45464	12.15	-341.61	0.72	-0.06	-0.07	2.58
45482	24.95	-357.13	6.55	0.06	0.03	2.77
45501	24.26	-358.22	16.45	0.19	0.13	3.02
45518	14.25	-346.69	22.08	0.27	0.18	3.22
45535	7.69	-338.55	23.54	0.26	0.19	3.31
45554	-3.40	-326.69	26.63	0.17	0.15	3.41
45572	-8.70	-329.27	23.73	0.06	0.08	3.37
45591	-6.18	-341.77	9.11	0.04	0.01	3.24
45609	2.58	-354.16	-8.07	0.04	0.01	3.04
45627	7.08	-360.28	-15.37	0.02	0.02	2.92
45646	13.95	-372.79	-28.05	0.05	0.07	2.66
45663	16.05	-377.59	-36.30	0.09	0.08	2.48
45683	20.65	-381.64	-33.72	0.00	0.02	2.30
45700	29.36	-391.53	-15.23	-0.02	-0.02	2.10
45720	33.97	-396.32	-2.06	-0.01	-0.03	1.97
45739	39.09	-398.96	25.36	0.14	0.02	1.60
45756	33.26	-379.07	50.22	0.37	0.04	1.23
45776	25.31	-334.29	68.13	0.50	0.00	0.97
45793	19.13	-280.61	77.12	0.47	-0.02	0.75
45812	15.05	-231.45	79.88	0.45	-0.03	0.63
45830	13.64	-207.09	79.25	0.47	-0.03	0.60
45848	13.35	-155.46	73.09	0.47	-0.07	0.53
45867	17.15	-104.37	60.64	0.47	-0.09	0.47
45886	22.43	-51.10	43.40	0.53	-0.08	0.44
45905	26.98	8.90	23.28	0.59	-0.07	0.41
45922	28.96	41.15	13.09	0.61	-0.07	0.39
45939	32.55	108.49	-5.89	0.65	-0.07	0.33
45958	35.77	181.26	-21.67	0.75	-0.08	0.29
45976	39.25	266.02	-33.40	0.86	-0.09	0.28
45995	42.43	361.82	-38.57	0.97	-0.07	0.28
46013	42.77	413.36	-37.64	1.01	-0.06	0.29
46031	39.47	499.98	-29.56	1.03	0.00	0.35
46049	30.56	499.33	-20.28	0.89	0.04	0.56
46067	20.14	499.98	-14.95	0.39	0.02	1.00
46086	15.85	499.98	-14.36	-0.05	-0.03	1.81
46104	12.45	499.98	-17.65	-0.22	-0.07	2.28
46122	19.32	499.98	-28.46	-0.94	-0.16	3.01
46141	35.29	429.32	-50.64	-1.41	-0.10	3.16
46160	46.98	239.30	-73.15	-1.16	-0.01	2.92
46180	50.60	107.01	-83.51	-0.54	0.07	2.81
46198	49.50	70.91	-86.09	0.36	0.20	2.94
46215	38.64	78.64	-90.13	0.82	0.28	2.97
46234	9.81	186.04	-85.68	1.13	0.37	2.66
46251	-29.24	292.97	-68.48	0.69	0.33	2.22
46270	-59.23	350.81	-49.99	0.41	0.20	2.01
46288	-66.35	368.16	-41.37	0.20	0.01	1.88
46306	-62.35	384.38	-26.21	0.08	-0.06	1.85
46325	-41.41	373.11	-16.02	-0.18	-0.11	1.81
46344	-18.59	333.51	-8.27	-0.33	-0.09	1.73
46362	1.54	282.49	-2.00	-0.33	-0.08	1.62
46381	9.61	257.80	0.49	-0.25	0.00	1.51
46398	17.81	217.16	4.24	-0.22	0.05	1.44
46416	13.89	187.99	5.84	-0.15	0.10	1.25
46434	3.51	170.30	5.63	-0.09	0.09	1.03
46451	-2.18	164.84	5.19	-0.11	0.07	0.81
46469	-12.95	155.15	4.58	-0.09	0.04	0.71
46489	-20.23	151.87	8.39	-0.04	-0.01	0.55
46508	-22.89	159.18	13.35	0.01	-0.04	0.41
46525	-19.07	172.20	16.17	-0.03	-0.11	0.27
46545	-7.63	179.64	19.00	-0.09	-0.13	0.15
46563	-0.85	181.24	20.22	-0.08	-0.12	0.05
46582	12.21	186.43	22.26	-0.07	-0.11	0.01
46601	21.64	192.00	21.48	-0.10	-0.08	-0.08
46619	27.11	191.56	20.97	-0.16	-0.06	-0.13
46638	29.19	183.67	22.32	-0.16	-0.04	-0.19
46657	28.38	176.19	23.36	-0.14	-0.03	-0.26
46676	26.21	168.72	22.29	-0.17	-0.04	-0.30
46695	25.28	162.72	21.30	-0.20	-0.04	-0.30
46714	22.92	146.04	20.48	-0.20	-0.03	-0.30
46733	17.29	127.46	20.31	-0.18	-0.01	-0.31
46751	9.58	108.37	18.10	-0.19	-0.00	-0.33
46771	1.45	85.57	12.92	-0.21	-0.02	-0.37
46789	-4.50	59.78	6.56	-0.22	-0.04	-0.40
46809	-8.94	34.09	-1.25	-0.19	-0.03	-0.42
46828	-13.87	13.31	-8.77	-0.17	-0.03	-0.43
46847	-15.90	3.81	-12.10	-0.16	-0.04	-0.42
46867	-17.78	-14.66	-17.36	-0.15	-0.05	-0.41
46887	-16.80	-31.01	-20.65	-0.12	-0.06	-0.39
46908	-14.37	-41.76	-22.19	-0.11	-0.06	-0.37
46927	-10.04	-52.00	-22.06	-0.12	-0.06	-0.34
46948	-5.17	-65.03	-21.18	-0.13	-0.06	-0.30
46968	-0.78	-78.58	-19.06	-0.14	-0.05	-0.26
46989	2.04	-93.15	-15.46	-0.15	-0.04	-0.21
47008	3.71	-110.87	-12.07	-0.17	-0.03	-0.14
47028	4.52	-129.62	-8.41	-0.17	-0.02	-0.07
47048	3.11	-146.30	-4.01	-0.17	-0.00	-0.01
47067	0.89	-163.45	1.36	-0.18	-0.01	0.06
47087	0.12	-181.84	5.23	-0.19	-0.02	0.16
47106	-0.47	-201.22	8.19	-0.19	-0.00	0.26
47125	-1.82	-218.61	11.00	-0.13	0.01	0.37
47143	-2.43	-228.88	12.24	-0.09	-0.02	0.48
47162	-1.22	-232.21	11.69	-0.09	-0.03	0.53
47182	2.32	-238.83	9.77	-0.07	-0.01	0.65
47200	3.36	-241.74	8.73	0.02	0.03	0.78
47219	2.82	-234.41	5.17	0.06	0.00	0.90
47236	5.72	-229.71	-1.60	-0.02	-0.01	1.02
47255	8.22	-234.09	-7.02	-0.02	0.05	1.18
47274	7.20	-236.25	-8.00	-0.00	0.08	1.28
47292	2.84	-239.97	-9.19	-0.02	0.05	1.36
47312	3.98	-249.63	-13.47	-0.10	0.00	1.50
47330	7.87	-268.81	-13.00	-0.12	0.07	1.67
47349	4.58	-285.54	-3.71	-0.03	0.11	1.82
47368	0.81	-295.15	5.42	-0.03	0.06	1.94
47386	0.06	-300.35	8.10	-0.01	0.06	2.02
47404	-0.60	-307.05	13.40	0.08	0.06	2.13
47422	-3.71	-301.62	23.64	0.26	0.11	2.29
47441	-10.89	-279.05	29.51	0.32	0.08	2.45
47459	-11.51	-257.02	20.58	0.28	0.01	2.60
47477	-8.13	-248.69	13.23	0.25	-0.01	2.68
47496	0.98	-239.94	0.05	0.18	0.03	2.86
47514	6.71	-241.90	-11.26	0.06	0.06	3.03
47533	10.76	-259.54	-25.57	-0.03	0.06	3.12
47551	16.01	-285.28	-38.89	-0.06	0.06	3.04
47569	18.11	-298.58	-43.05	-0.03	0.09	2.82
47589	19.52	-321.66	-45.33	0.00	0.08	2.69
47607	20.54	-336.09	-41.67	0.10	0.05	2.38
47626	23.30	-336.23	-32.78	0.20	0.00	2.09
47644	30.99	-324.66	-13.85	0.25	-0.07	1.88
47662	45.38	-308.56	16.24	0.24	-0.12	1.69
47681	52.03	-300.96	34.12	0.19	-0.06	1.54
47699	57.08	-289.64	71.47	0.21	-0.01	1.48
47717	49.10	-272.16	103.76	0.31	0.06	1.38
47735	31.68	-242.90	124.92	0.35	0.10	1.26
47753	9.92	-210.27	132.80	0.34	0.10	1.10
47772	-0.20	-193.82	131.90	0.34	0.08	1.02
47789	-14.04	-161.53	121.75	0.32	0.00	0.86
47807	-16.71	-130.31	102.52	0.33	-0.08	0.74
47827	-8.51	-94.94	76.10	0.41	-0.15	0.68
47845	8.29	-48.23	44.08	0.53	-0.19	0.65
47864	18.25	-20.00	26.46	0.60	-0.17	0.60
47882	36.73	41.76	-7.63	0.60	-0.14	0.59
47899	47.61	106.14	-35.63	0.65	-0.09	0.58
47918	51.61	178.67	-55.69	0.77	-0.08	0.60
47937	54.26	264.50	-65.38	0.86	-0.08	0.65
47956	54.41	310.39	-65.43	0.86	-0.05	0.70
47974	49.33	397.54	-57.63	0.78	0.01	0.82
47991	36.65	472.14	-42.57	0.70	0.09	1.03
48010	20.23	499.98	-25.41	0.45	0.09	1.39
48028	9.17	499.94	-11.90	0.01	0.06	1.90
48045	6.42	499.98	-9.11	-0.20	0.02	2.18
48065	10.30	473.19	-12.37	-0.53	-0.11	2.65
48083	30.21	376.46	-24.09	-0.68	-0.14	2.79
48102	50.05	278.06	-42.51	-0.54	-0.07	2.75
48120	62.07	206.79	-60.70	-0.22	0.04	2.73
48140	62.29	180.08	-74.16	0.22	0.17	2.80
48158	56.63	187.45	-79.41	0.45	0.24	2.84
48175	33.26	238.27	-87.94	0.66	0.35	2.74
48194	-2.90	299.51	-93.06	0.49	0.40	2.46
48212	-37.78	336.29	-94.59	0.31	0.27	2.24
48231	-49.18	346.82	-94.64	0.14	0.10	2.12
48250	-57.05	354.08	-93.96	-0.01	-0.00	2.08
48268	-44.51	329.38	-87.86	-0.28	-0.06	2.00
48288	-29.16	282.59	-76.23	-0.29	-0.02	1.86
48307	-19.24	242.90	-60.90	-0.21	-0.00	1.66
48326	-13.50	212.13	-46.51	-0.17	0.01	1.47
48345	-13.69	190.64	-31.85	-0.07	0.05	1.28
48364	-18.42	184.95	-15.44	0.05	0.07	1.08
48383	-22.40	187.79	-7.10	0.06	0.05	0.87
48400	-29.56	196.15	8.38	0.03	0.02	0.78
48418	-32.36	200.53	22.43	-0.00	-0.01	0.64
48438	-30.82	203.93	33.48	-0.00	-0.03	0.51
48456	-27.31	208.51	39.73	-0.04	-0.05	0.38
48476	-20.60	206.57	41.38	-0.11	-0.09	0.28
48494	-15.67	203.26	41.40	-0.11	-0.12	0.22
48513	-4.06	196.76	40.12	-0.11	-0.12	0.18
48532	7.03	192.15	35.72	-0.09	-0.11	0.10
48550	16.16	189.58	31.07	-0.08	-0.10	0.02
48568	22.60	185.75	28.44	-0.11	-0.07	-0.04
48586	24.57	182.31	27.45	-0.15	-0.07	-0.10
48606	27.16	171.01	24.86	-0.19	-0.06	-0.14
48624	27.97	153.96	21.99	-0.19	-0.05	-0.17
48643	25.92	135.67	18.95	-0.18	-0.04	-0.23
48662	22.81	118.99	15.55	-0.18	-0.05	-0.28
48680	19.38	101.00	11.81	-0.20	-0.05	-0.33
48699	15.14	80.87	7.84	-0.19	-0.04	-0.39
48718	12.42	71.32	5.43	-0.15	-0.04	-0.45
48737	6.42	57.07	0.56	-0.14	-0.05	-0.47
48755	2.04	45.10	-3.31	-0.14	-0.06	-0.50
48775	-0.92	31.54	-5.60	-0.16	-0.06	-0.51
48795	-3.65	16.85	-6.24	-0.13	-0.06	-0.52
48814	-6.23	7.51	-5.46	-0.09	-0.06	-0.52
48834	-8.26	0.58	-3.80	-0.10	-0.06	-0.50
48854	-9.72	-8.12	-1.42	-0.11	-0.06	-0.48
48875	-9.99	-18.95	1.69	-0.11	-0.06	-0.45
48894	-9.67	-30.82	5.04	-0.13	-0.06	-0.40
48914	-8.97	-45.24	7.84	-0.14	-0.05	-0.34
48933	-7.80	-62.38	10.83	-0.17	-0.05	-0.30
48953	-7.03	-82.14	13.70	-0.16	-0.04	-0.25
48974	-6.74	-101.44	15.53	-0.14	-0.03	-0.18
48993	-7.25	-117.49	16.04	-0.13	-0.02	-0.11
49013	-7.61	-124.47	16.14	-0.13	-0.02	-0.04
49032	-8.21	-139.25	16.04	-0.14	-0.01	-0.01
49053	-9.31	-154.04	15.85	-0.16	-0.01	0.11
49072	-9.99	-171.69	14.13	-0.16	-0.01	0.16
49090	-9.64	-190.26	11.12	-0.16	-0.01	0.26
49110	-8.80	-208.54	8.47	-0.16	0.01	0.38
49129	-8.36	-227.58	6.21	-0.16	0.02	0.51
49148	-6.48	-244.17	2.55	-0.11	0.01	0.66
49166	-3.36	-255.10	-1.75	-0.03	0.03	0.81
49185	-2.33	-257.02	-3.60	0.06	0.07	0.97
49205	-2.67	-253.10	-6.56	0.07	0.07	1.08
49223	-1.57	-247.41	-9.00	0.06	0.05	1.27
49242	2.67	-245.27	-10.09	0.06	0.05	1.44
49260	4.65	-245.47	-2.53	0.04	0.11	1.57
49278	0.98	-253.04	9.83	-0.06	0.09	1.75
49297	0.41	-261.81	15.85	-0.07	0.08	1.97
49315	1.68	-280.94	26.32	-0.09	0.11	2.08
49334	-1.17	-304.50	39.34	-0.14	0.17	2.30
49352	-10.45	-333.31	56.09	-0.12	0.17	2.49
49371	-19.97	-355.47	65.51	0.01	0.15	2.71
49390	-24.40	-360.31	67.63	0.14	0.12	2.89
49408	-24.31	-357.83	67.41	0.18	0.09	2.95
49426	-21.87	-347.70	64.56	0.22	0.11	3.03
49444	-23.56	-335.92	54.37	0.25	0.16	3.12
49463	-28.18	-323.23	39.47	0.23	0.17	3.21
49482	-33.14	-317.70	23.21	0.14	0.19	3.24
49499	-36.07	-318.89	14.65	0.11	0.19	3.26
49517	-39.26	-326.46	-3.08	0.04	0.16	3.23
49537	-36.36	-342.70	-20.80	-0.07	0.14	3.12
49556	-33.34	-371.29	-36.65	-0.23	0.16	2.90
49577	-32.23	-421.80	-56.29	-0.48	0.20	2.68
49595	-28.44	-484.44	-69.29	-0.33	0.04	2.37
49614	-3.98	-500.00	-74.16	0.16	-0.11	1.99
49634	30.06	-478.18	-66.39	0.57	-0.13	1.60
49652	44.51	-443.50	-56.34	0.65	-0.10	1.40
49672	62.09	-369.66	-26.34	0.63	-0.01	1.10
49690	63.86	-304.32	8.21	0.52	0.06	0.88
49708	52.09	-253.91	40.30	0.42	0.11	0.71
49726	33.78	-211.84	67.43	0.39	0.11	0.57
49743	24.28	-191.15	78.16	0.42	0.10	0.53
49761	6.88	-143.23	91.49	0.52	0.06	0.46
49781	-3.27	-83.08	92.09	0.61	-0.01	0.40
49799	-3.27	-15.05	77.84	0.66	-0.07	0.35
49818	3.97	56.95	51.07	0.69	-0.11	0.30
49836	9.34	94.09	34.76	0.71	-0.14	0.25
49853	22.81	169.31	0.41	0.72	-0.15	0.23
49872	36.91	247.33	-29.40	0.85	-0.16	0.20
49890	49.61	341.26	-50.70	0.98	-0.14	0.19
49909	58.15	446.40	-55.66	1.06	-0.08	0.20
49927	59.54	495.39	-50.13	0.96	0.04	0.28
49944	53.50	499.44	-26.05	0.88	0.08	0.35
49963	41.12	499.98	3.97	0.65	0.16	0.72
49980	28.03	499.98	31.88	0.12	0.22	1.38
49999	21.65	499.98	42.48	-0.20	0.16	2.27
50016	15.44	499.98	55.74	-0.45	0.07	2.67
50033	24.78	497.54	51.44	-1.24	-0.03	3.15
50053	40.21	337.28	22.67	-1.42	-0.01	3.17
50071	46.80	167.40	-13.47	-0.83	0.03	2.90
50090	48.72	112.20	-29.16	-0.12	0.01	2.76
50108	53.42	68.28	-58.26	0.24	0.02	2.77
50125	53.53	108.26	-85.16	0.82	0.07	2.71
50143	41.98	204.83	-99.32	0.89	0.18	2.32
50161	29.85	252.46	-100.95	0.52	0.22	1.97
50179	0.29	315.69	-100.54	0.37	0.22	1.87
50197	-27.31	345.20	-99.41	0.22	0.15	1.76
50215	-42.65	361.51	-95.31	0.16	0.03	1.67
50233	-42.43	367.37	-84.99	-0.04	-0.06	1.64
50253	-38.09	361.51	-78.93	-0.22	-0.07	1.62
50271	-26.29	334.58	-66.42	-0.25	-0.07	1.59
50292	-14.51	302.81	-49.50	-0.26	-0.03	1.47
50311	-9.61	271.61	-34.35	-0.30	0.03	1.30
50330	-11.37	238.82	-24.93	-0.31	0.01	1.10
50349	-12.07	209.23	-16.80	-0.26	-0.01	0.89
50368	-12.27	188.63	-6.20	-0.22	-0.03	0.67
50388	-11.90	171.81	3.34	-0.21	-0.02	0.50
50406	-13.15	159.06	12.05	-0.18	-0.03	0.36
50425	-13.53	154.40	15.99	-0.20	-0.04	0.26
50443	-12.71	144.84	19.81	-0.21	-0.07	0.24
50462	-8.61	134.11	17.87	-0.16	-0.07	0.20
50481	-5.40	130.68	15.40	-0.09	-0.07	0.13
50499	-2.52	133.56	17.12	-0.05	-0.07	0.06
50518	-0.26	140.05	20.97	-0.05	-0.06	-0.00
50537	0.61	142.73	23.22	-0.09	-0.05	-0.07
50557	1.28	143.55	27.37	-0.10	-0.04	-0.10
50575	0.15	138.63	31.83	-0.15	-0.03	-0.16
50594	-0.93	127.67	34.09	-0.19	-0.04	-0.22
50614	0.24	110.95	32.44	-0.22	-0.06	-0.27
50632	4.06	91.02	27.88	-0.23	-0.07	-0.31
50650	7.74	69.60	22.78	-0.24	-0.06	-0.35
50669	9.11	58.49	20.11	-0.25	-0.06	-0.39
50688	11.44	33.74	14.28	-0.25	-0.06	-0.40
50708	13.24	10.96	7.10	-0.24	-0.05	-0.43
50726	13.09	-7.55	0.95	-0.21	-0.05	-0.45
50746	11.67	-23.35	-1.60	-0.20	-0.05	-0.46
50765	9.43	-36.70	-0.99	-0.19	-0.04	-0.47
50784	7.31	-48.78	0.34	-0.19	-0.05	-0.46
50805	5.43	-60.06	1.89	-0.17	-0.05	-0.44
50824	3.45	-68.42	4.21	-0.15	-0.04	-0.41
50843	0.03	-74.63	5.98	-0.14	-0.02	-0.37
50862	-2.09	-77.84	6.67	-0.16	-0.03	-0.32
50882	-4.75	-87.20	6.79	-0.15	-0.03	-0.29
50902	-5.55	-96.79	5.11	-0.13	-0.03	-0.21
50921	-5.63	-104.58	1.85	-0.10	-0.03	-0.13
50941	-5.22	-109.86	-1.60	-0.07	-0.02	-0.06
50961	-4.52	-113.36	-4.41	-0.06	-0.02	0.02
50980	-2.12	-118.21	-8.22	-0.07	-0.04	0.13
51000	3.05	-125.18	-12.45	-0.07	-0.03	0.21
51020	7.40	-133.42	-14.60	-0.08	-0.02	0.28
51039	10.67	-144.73	-13.28	-0.12	-0.02	0.37
51059	15.43	-161.56	-10.50	-0.14	-0.03	0.48
51078	21.15	-179.60	-8.06	-0.09	-0.01	0.61
51097	22.55	-186.08	-6.74	-0.04	0.06	0.75
51116	20.83	-194.98	-3.75	-0.07	0.07	0.92
51134	16.49	-206.62	0.02	-0.10	0.07	1.00
51153	12.07	-223.18	4.68	-0.06	0.08	1.14
51171	7.23	-234.31	11.80	-0.03	0.10	1.25
51189	1.17	-246.31	20.89	-0.07	0.09	1.42
51208	-2.67	-262.60	28.03	-0.05	0.07	1.61
51227	-3.68	-269.84	29.80	-0.01	0.07	1.69
51246	-5.19	-276.86	30.87	0.06	0.07	1.82
51264	-5.37	-284.61	30.90	-0.05	0.02	1.97
51282	-1.01	-303.99	28.69	-0.02	0.03	2.14
51301	0.05	-309.86	28.44	0.24	0.06	2.31
51319	-2.06	-302.37	29.65	0.27	0.09	2.43
51338	-9.25	-291.84	31.40	0.13	0.09	2.54
51355	-14.77	-295.15	29.53	0.17	0.09	2.65
51373	-17.85	-290.01	22.20	0.27	0.07	2.83
51392	-14.50	-282.73	13.31	0.15	0.01	2.96
51410	-9.52	-285.10	9.09	0.11	-0.02	2.99
51430	5.57	-293.98	0.92	0.14	-0.02	3.07
51448	19.78	-297.13	-6.13	0.18	0.03	3.13
51465	27.89	-298.19	-12.37	0.16	0.09	3.08
51484	29.13	-302.84	-17.40	0.09	0.16	2.96
51502	26.14	-308.00	-18.37	0.05	0.25	2.73
51522	12.21	-320.77	-17.49	-0.01	0.28	2.58
51540	-5.65	-344.73	-16.28	-0.10	0.20	2.27
51560	-14.07	-370.91	-16.24	-0.03	0.11	1.98
51579	-10.74	-384.11	-15.41	0.08	-0.04	1.73
51598	9.31	-381.03	-11.23	0.21	-0.14	1.47
51617	35.37	-358.98	-1.34	0.37	-0.17	1.24
51636	56.90	-317.55	12.13	0.50	-0.11	1.04
51655	63.03	-291.18	19.36	0.52	0.02	0.89
51672	62.26	-235.72	32.84	0.50	0.07	0.83
51689	48.37	-184.97	43.32	0.43	0.13	0.71
51708	28.12	-141.45	49.71	0.37	0.12	0.61
51726	19.03	-122.16	51.61	0.34	0.04	0.53
51744	8.26	-86.93	53.24	0.34	0.00	0.50
51762	6.90	-50.19	52.14	0.39	-0.05	0.45
51780	11.32	-6.27	47.79	0.48	-0.08	0.40
51799	18.91	49.55	39.12	0.59	-0.09	0.39
51817	23.57	82.44	33.45	0.66	-0.09	0.39
51836	33.86	159.35	21.84	0.81	-0.11	0.39
51853	44.85	252.32	10.68	0.95	-0.10	0.38
51870	55.59	355.58	-0.17	0.96	-0.09	0.37
51889	63.64	455.64	-6.58	0.97	-0.05	0.44
51907	65.86	498.17	-5.23	0.98	-0.00	0.50
51926	61.17	499.42	5.65	0.89	0.12	0.73
51943	47.70	499.98	15.90	0.35	0.13	1.17
51960	35.84	499.98	19.82	-0.18	0.12	2.03
51979	29.77	499.98	19.79	-0.42	0.11	2.48
51996	24.64	499.21	8.04	-1.08	-0.02	3.02
52014	34.84	364.79	-24.78	-1.29	-0.12	3.04
52034	52.44	198.78	-62.07	-0.92	-0.09	2.82
52052	66.02	96.41	-90.65	-0.21	-0.01	2.79
52071	69.98	79.73	-103.27	0.21	0.05	2.84
52088	67.18	120.38	-126.53	0.90	0.22	2.90
52105	38.41	222.14	-132.42	0.93	0.38	2.63
52123	16.19	270.11	-124.57	0.60	0.43	2.31
52141	-31.30	335.71	-100.45	0.41	0.36	2.21
52159	-60.09	356.58	-82.53	0.07	0.14	2.10
52177	-63.17	343.86	-72.24	-0.09	0.02	2.07
52195	-51.96	315.43	-61.29	-0.24	-0.06	1.97
52213	-42.22	294.60	-54.76	-0.32	-0.10	1.91
52234	-18.59	242.72	-40.36	-0.33	-0.08	1.72
52253	2.67	195.01	-24.26	-0.24	-0.03	1.61
52272	11.12	169.39	-8.30	-0.10	0.09	1.36
52290	3.59	159.50	4.67	-0.04	0.13	1.16
52308	-8.42	160.45	14.22	0.04	0.10	1.00
52326	-17.93	172.41	21.53	0.08	0.07	0.82
52344	-22.05	180.88	23.90	0.07	0.05	0.74
52361	-25.18	196.04	25.24	0.00	-0.04	0.61
52380	-18.60	205.58	26.09	-0.04	-0.09	0.52
52398	-9.02	213.10	28.41	-0.05	-0.06	0.40
52418	0.32	216.63	28.05	-0.12	-0.09	0.31
52436	5.58	215.50	25.86	-0.15	-0.09	0.28
52454	14.86	208.97	19.97	-0.18	-0.07	0.20
52473	20.45	198.70	14.45	-0.20	-0.04	0.11
52491	21.84	186.08	8.48	-0.20	-0.03	0.02
52509	20.25	172.53	1.79	-0.19	-0.02	-0.05
52528	18.80	166.35	-0.55	-0.18	-0.02	-0.09
52547	15.14	154.21	-2.30	-0.18	-0.02	-0.16
52567	11.29	140.52	-1.46	-0.19	-0.03	-0.22
52586	8.38	126.22	0.35	-0.18	-0.04	-0.27
52605	6.64	111.56	1.37	-0.19	-0.05	-0.31
52623	4.68	95.72	1.43	-0.19	-0.04	-0.36
52642	1.71	79.79	0.69	-0.20	-0.04	-0.39
52661	0.11	71.67	0.46	-0.20	-0.04	-0.42
52680	-2.72	54.98	0.34	-0.21	-0.04	-0.43
52699	-5.49	37.64	0.29	-0.20	-0.05	-0.46
52718	-6.87	20.28	-0.08	-0.21	-0.05	-0.48
52739	-6.64	3.72	-1.01	-0.20	-0.06	-0.50
52758	-5.63	-9.45	-1.08	-0.20	-0.07	-0.52
52780	-3.72	-23.10	0.14	-0.20	-0.07	-0.54
52799	-1.28	-36.12	1.86	-0.19	-0.07	-0.54
52818	1.08	-46.95	3.13	-0.17	-0.07	-0.53
52838	3.81	-57.22	3.91	-0.19	-0.07	-0.49
52857	5.23	-69.50	5.31	-0.20	-0.05	-0.45
52877	5.28	-83.63	7.34	-0.18	-0.03	-0.39
52896	3.85	-93.63	10.16	-0.15	-0.03	-0.33
52914	2.82	-97.63	11.26	-0.14	-0.02	-0.31
52934	-0.05	-105.51	12.27	-0.14	-0.01	-0.25
52954	-3.25	-115.36	11.29	-0.13	-0.00	-0.16
52974	-5.94	-124.31	8.71	-0.11	-0.02	-0.07
52993	-6.48	-131.32	6.44	-0.09	-0.02	0.01
53013	-5.54	-138.98	5.45	-0.10	-0.02	0.11
53031	-3.91	-149.25	3.86	-0.12	-0.02	0.21
53051	-1.31	-162.26	2.33	-0.11	-0.02	0.31
53071	1.27	-174.48	0.47	-0.09	-0.01	0.40
53089	3.65	-185.42	-0.73	-0.09	-0.00	0.51
53109	5.68	-198.15	0.27	-0.11	0.02	0.62
53127	6.04	-205.18	2.08	-0.09	0.04	0.68
53146	3.40	-216.43	5.94	-0.04	0.08	0.81
53164	0.00	-224.21	5.84	-0.03	0.04	0.97
53182	1.08	-233.58	4.90	-0.06	0.03	1.10
53201	1.95	-246.67	8.03	-0.04	0.07	1.20
53219	0.79	-251.86	11.38	-0.00	0.08	1.27
53237	-1.75	-256.96	17.97	0.04	0.06	1.46
53256	-2.62	-259.45	24.00	0.06	0.07	1.67
53274	-5.14	-262.44	33.60	0.02	0.10	1.85
53293	-7.60	-274.72	41.73	-0.07	0.04	1.99
53311	-7.16	-285.23	43.18	-0.02	0.07	2.19
53329	-6.53	-302.78	41.55	0.05	0.11	2.27
53349	-12.34	-307.91	42.24	0.09	0.18	2.39
53367	-20.83	-311.08	45.84	0.12	0.12	2.49
53386	-21.29	-307.42	40.65	0.25	0.07	2.60
53404	-16.20	-292.59	30.69	0.27	0.08	2.68
53421	-13.90	-285.23	26.02	0.28	0.11	2.74
53440	-13.31	-271.24	15.46	0.26	0.16	2.89
53458	-16.45	-263.46	-2.87	0.17	0.19	2.97
53478	-21.22	-266.43	-23.80	0.11	0.19	2.95
53496	-21.62	-274.75	-40.36	0.07	0.15	2.92
53514	-19.27	-280.93	-46.54	0.00	0.09	2.81
53533	-8.91	-298.80	-56.00	0.01	0.08	2.73
53552	2.85	-314.29	-60.88	0.02	0.09	2.51
53571	12.54	-327.71	-58.07	0.03	0.09	2.25
53589	17.97	-337.40	-48.51	0.05	0.11	1.98
53609	20.42	-341.72	-33.02	0.11	0.07	1.70
53627	22.71	-339.95	-23.22	0.23	-0.01	1.44
53645	31.39	-324.42	-0.41	0.30	-0.04	1.33
53665	42.72	-291.46	24.28	0.44	-0.08	1.13
53683	51.01	-244.72	46.75	0.49	-0.03	0.96
53701	50.00	-194.75	63.40	0.47	0.03	0.82
53719	40.74	-147.34	72.98	0.43	0.08	0.71
53737	34.30	-125.58	74.95	0.41	0.08	0.67
53755	21.67	-86.14	74.37	0.37	0.06	0.60
53773	13.41	-49.42	69.26	0.38	0.01	0.55
53791	11.80	-10.39	60.82	0.42	-0.03	0.52
53810	12.73	10.94	55.57	0.49	-0.06	0.50
53827	17.67	58.50	42.66	0.53	-0.07	0.50
53845	26.54	114.62	26.96	0.61	-0.09	0.51
53863	37.17	179.81	10.76	0.69	-0.08	0.54
53881	41.21	215.68	3.68	0.79	-0.05	0.60
53899	45.94	294.08	-6.68	0.84	-0.04	0.64
53917	47.82	381.91	-8.83	0.91	0.02	0.78
53935	41.72	469.76	0.56	0.77	0.11	0.98
53952	27.86	499.98	15.40	0.42	0.13	1.33
53970	20.78	499.56	22.60	0.25	0.13	1.57
53988	8.42	499.98	32.20	-0.16	0.10	2.13
54006	2.17	464.22	24.54	-0.54	-0.04	2.61
54025	14.36	361.48	-6.16	-0.67	-0.21	2.81
54043	26.84	308.55	-25.53	-0.46	-0.24	2.85
54062	54.34	221.97	-62.76	-0.30	-0.21	2.84
54082	71.85	175.43	-97.72	-0.00	-0.03	2.80
54100	65.63	172.76	-130.02	0.45	0.18	2.79
54118	36.30	226.14	-147.74	0.78	0.31	2.69
54136	-7.92	296.97	-143.59	0.53	0.38	2.43
54154	-32.56	319.17	-136.90	0.35	0.37	2.32
54173	-73.68	334.58	-120.25	0.13	0.20	2.18
54191	-86.32	332.60	-100.13	0.06	-0.01	2.09
54210	-71.38	320.65	-81.89	-0.08	-0.16	2.06
54229	-42.39	296.97	-60.17	-0.15	-0.15	1.96
54248	-17.46	270.03	-32.87	-0.15	-0.06	1.79
54267	-9.51	257.72	-19.90	-0.10	0.00	1.59
54286	-0.98	239.04	1.92	-0.08	0.04	1.50
54305	-3.37	227.46	18.94	-0.05	0.10	1.29
54323	-11.83	219.31	32.50	-0.04	0.10	1.08
54341	-22.78	215.44	42.98	-0.03	0.08	0.89
54360	-30.29	211.20	49.33	-0.08	0.01	0.72
54378	-31.60	207.53	51.38	-0.09	-0.04	0.59
54398	-29.65	199.68	53.47	-0.07	-0.06	0.53
54416	-22.86	196.35	51.59	-0.06	-0.11	0.41
54435	-10.89	192.72	43.30	-0.10	-0.15	0.31
54454	2.76	184.04	30.93	-0.13	-0.14	0.22
54472	13.38	173.86	16.22	-0.11	-0.11	0.12
54492	17.09	170.04	8.68	-0.05	-0.09	0.03
54510	20.94	168.15	-4.67	-0.04	-0.08	-0.01
54528	21.97	169.78	-13.38	-0.05	-0.07	-0.09
54548	20.77	168.46	-17.52	-0.10	-0.06	-0.16
54567	17.91	162.05	-20.13	-0.11	-0.04	-0.21
54587	13.03	155.11	-21.45	-0.10	-0.04	-0.26
54606	8.19	147.99	-20.05	-0.10	-0.05	-0.31
54625	4.46	139.22	-16.42	-0.12	-0.05	-0.35
54644	1.22	127.01	-11.75	-0.15	-0.06	-0.38
54663	0.23	119.31	-9.34	-0.17	-0.07	-0.40
54683	-0.90	101.32	-4.93	-0.19	-0.06	-0.43
54702	-2.70	80.32	-2.35	-0.18	-0.05	-0.45
54723	-6.09	58.55	-0.29	-0.18	-0.05	-0.48
54742	-8.82	36.82	2.26	-0.19	-0.07	-0.51
54761	-9.77	14.83	5.31	-0.18	-0.08	-0.52
54781	-8.68	-6.30	8.94	-0.15	-0.08	-0.53
54800	-7.64	-22.11	12.63	-0.13	-0.08	-0.50
54820	-6.27	-35.87	16.08	-0.14	-0.09	-0.47
54840	-3.10	-51.22	19.52	-0.17	-0.08	-0.43
54859	0.55	-71.67	22.54	-0.19	-0.08	-0.40
54879	4.33	-93.38	25.22	-0.18	-0.07	-0.36
54898	7.05	-112.67	27.36	-0.19	-0.07	-0.31
54918	8.29	-129.30	28.56	-0.19	-0.06	-0.25
54937	8.77	-138.23	28.46	-0.19	-0.05	-0.22
54955	8.96	-155.33	27.36	-0.18	-0.04	-0.15
54975	8.41	-171.54	25.85	-0.17	-0.04	-0.07
54995	7.52	-185.55	24.64	-0.13	-0.03	0.02
55014	5.05	-196.38	23.76	-0.12	-0.00	0.11
55032	1.17	-206.34	22.48	-0.12	0.00	0.22
55050	-1.62	-215.56	20.19	-0.09	-0.00	0.36
55070	-2.27	-219.12	18.78	-0.04	0.02	0.47
55089	-4.59	-222.09	16.36	-0.01	0.04	0.52
55108	-8.59	-218.93	11.29	0.03	0.04	0.65
55126	-9.78	-212.34	1.34	0.07	0.02	0.81
55144	-8.85	-205.09	-6.94	0.06	0.04	0.96
55163	-8.76	-201.17	-8.42	0.04	0.08	1.09
55182	-9.72	-200.87	-8.35	-0.02	0.04	1.25
55202	-8.38	-206.57	-8.35	-0.10	0.04	1.40
55221	-4.78	-222.95	-4.76	-0.15	0.07	1.47
55241	-5.65	-250.18	5.57	-0.16	0.09	1.59
55259	-6.58	-275.01	17.55	-0.13	0.04	1.75
55277	-4.55	-301.88	27.88	-0.20	0.05	1.85
55297	-2.37	-336.30	38.62	-0.21	0.09	2.00
55315	-6.64	-363.07	48.03	-0.01	0.14	2.16
55335	-14.98	-365.19	51.21	0.19	0.14	2.31
55352	-19.58	-357.97	51.77	0.27	0.15	2.40
55370	-27.89	-330.40	52.51	0.39	0.13	2.60
55389	-30.73	-297.10	45.61	0.35	0.08	2.78
55408	-27.04	-275.18	27.69	0.24	0.07	2.90
55427	-18.98	-265.95	8.29	0.21	0.06	3.02
55444	-14.86	-263.75	0.18	0.18	0.09	3.06
55462	-10.33	-268.54	-15.09	0.04	0.14	3.12
55481	-9.20	-290.08	-32.17	-0.09	0.17	3.08
55501	-8.74	-322.69	-47.96	-0.11	0.16	2.92
55521	-7.03	-352.23	-54.46	-0.11	0.11	2.67
55540	5.25	-382.40	-48.77	-0.13	0.01	2.39
55559	23.68	-403.32	-32.79	0.02	-0.01	2.12
55577	32.09	-405.36	-22.35	0.11	-0.01	2.00
55595	45.10	-393.52	-0.14	0.27	0.01	1.71
55615	48.42	-361.22	21.93	0.43	0.06	1.39
55633	41.29	-312.70	40.77	0.51	0.09	1.12
55651	29.63	-257.69	53.22	0.52	0.07	0.92
55668	24.08	-230.03	56.87	0.51	0.05	0.85
55686	15.79	-177.80	59.51	0.47	0.02	0.73
55704	12.25	-129.32	56.63	0.46	-0.03	0.64
55722	14.30	-80.51	48.80	0.48	-0.07	0.57
55741	20.25	-29.37	37.31	0.50	-0.09	0.52
55759	23.97	-2.91	30.90	0.52	-0.09	0.49
55777	30.76	52.05	18.04	0.54	-0.07	0.45
55796	35.64	108.99	6.30	0.56	-0.05	0.43
55814	37.41	167.51	-3.19	0.59	-0.02	0.42
55833	37.20	198.01	-6.96	0.68	-0.01	0.44
55851	34.67	265.14	-11.44	0.72	0.00	0.46
55868	29.66	339.60	-11.38	0.77	0.02	0.58
55887	23.18	415.54	-8.54	0.77	0.04	0.78
55904	15.64	485.72	-5.46	0.70	0.06	1.07
55923	10.65	499.98	-3.52	0.32	0.08	1.49
55941	-0.66	499.65	-0.73	0.09	0.06	1.78
55958	-6.99	497.38	-3.69	-0.38	-0.02	2.35
55978	-1.82	414.47	-18.62	-0.73	-0.13	2.67
55997	15.08	297.93	-44.97	-0.76	-0.16	2.67
56017	32.06	192.29	-71.30	-0.53	-0.06	2.61
56036	36.38	152.98	-81.31	-0.08	0.05	2.64
56053	36.27	116.36	-93.61	0.22	0.09	2.70
56072	24.55	149.87	-95.89	0.72	0.23	2.75
56089	-4.71	226.65	-89.68	0.76	0.31	2.59
56108	-35.34	299.80	-82.00	0.60	0.19	2.31
56127	-44.46	328.45	-77.67	0.32	0.09	2.14
56146	-51.96	361.57	-70.95	0.17	0.07	2.13
56164	-51.16	361.39	-71.98	-0.06	0.01	2.14
56182	-39.05	337.36	-72.37	-0.20	-0.07	2.09
56202	-25.18	303.68	-62.53	-0.20	0.01	2.02
56221	-22.67	273.42	-48.03	-0.18	0.11	1.92
56240	-31.42	246.43	-33.62	-0.19	0.11	1.69
56258	-35.35	233.98	-25.34	-0.12	0.04	1.44
56278	-38.94	216.86	-4.09	-0.10	0.02	1.34
56296	-42.10	206.36	19.50	-0.11	0.03	1.13
56314	-46.01	196.38	41.12	-0.12	-0.01	0.96
56334	-44.16	188.95	58.17	-0.09	-0.06	0.77
56352	-34.61	185.23	65.37	-0.07	-0.15	0.63
56371	-26.41	184.46	64.99	-0.05	-0.17	0.50
56390	-8.00	185.33	59.02	-0.04	-0.17	0.44
56408	9.17	188.28	48.58	-0.04	-0.15	0.30
56427	22.46	188.51	35.69	-0.08	-0.11	0.20
56445	28.73	185.46	22.46	-0.09	-0.07	0.10
56464	28.76	183.38	10.82	-0.07	-0.03	0.02
56482	26.84	183.20	6.12	-0.07	-0.03	-0.06
56500	21.48	182.48	-0.35	-0.08	-0.02	-0.10
56520	14.39	179.21	-3.08	-0.11	-0.02	-0.15
56539	7.84	173.00	-2.24	-0.11	-0.03	-0.20
56559	2.67	165.10	0.63	-0.12	-0.03	-0.24
56577	-0.82	154.50	3.57	-0.14	-0.04	-0.28
56596	-3.20	140.20	5.98	-0.17	-0.05	-0.31
56616	-3.10	121.77	7.55	-0.18	-0.07	-0.34
56635	-2.58	112.44	8.06	-0.17	-0.05	-0.37
56655	-2.27	94.50	7.72	-0.17	-0.05	-0.42
56674	-2.59	75.64	6.21	-0.18	-0.05	-0.44
56692	-3.28	56.05	3.56	-0.18	-0.06	-0.48
56712	-3.27	36.10	0.32	-0.17	-0.05	-0.51
56731	-4.23	18.91	-2.09	-0.16	-0.05	-0.52
56752	-5.04	1.74	-3.59	-0.16	-0.05	-0.52
56771	-4.93	-14.53	-3.34	-0.15	-0.06	-0.52
56792	-4.84	-29.65	-2.06	-0.17	-0.05	-0.52
56811	-5.52	-47.68	-0.90	-0.18	-0.04	-0.49
56831	-5.49	-67.09	0.08	-0.19	-0.05	-0.46
56852	-3.80	-86.70	0.14	-0.20	-0.06	-0.43
56871	-1.91	-106.75	0.21	-0.21	-0.05	-0.38
56891	-1.39	-124.77	0.70	-0.22	-0.05	-0.32
56910	-0.12	-144.94	0.76	-0.21	-0.06	-0.25
56930	0.78	-154.60	0.73	-0.19	-0.05	-0.19
56949	2.55	-171.63	0.75	-0.16	-0.03	-0.14
56968	2.91	-184.84	1.02	-0.14	-0.03	-0.10
56988	3.54	-194.79	1.19	-0.12	-0.03	-0.01
57007	4.67	-201.90	0.56	-0.09	-0.03	0.06
57026	5.48	-204.88	0.49	-0.04	-0.01	0.16
57045	5.51	-205.03	-0.46	-0.04	-0.01	0.27
57065	7.23	-206.71	-3.13	-0.03	-0.03	0.40
57084	10.94	-208.18	-5.52	0.00	-0.02	0.52
57102	12.15	-207.26	-5.91	0.09	0.04	0.66
57121	10.47	-199.16	-5.05	0.09	0.04	0.74
57139	9.17	-192.37	-6.38	0.06	0.02	0.91
57159	11.28	-189.62	-10.93	0.07	0.00	1.09
57176	14.94	-187.06	-11.92	0.10	0.05	1.28
57194	15.26	-185.41	-9.32	0.06	0.07	1.50
57213	13.84	-186.83	0.75	-0.00	0.06	1.60
57231	12.57	-204.36	11.98	-0.13	0.06	1.74
57250	9.55	-234.47	26.49	-0.17	0.10	1.93
57268	3.95	-272.52	43.49	-0.27	0.09	2.10
57286	-0.37	-319.41	54.90	-0.22	0.07	2.21
57306	-2.04	-339.11	58.41	-0.03	0.08	2.33
57324	-6.12	-361.45	65.03	0.06	0.11	2.39
57343	-12.30	-363.72	69.81	0.17	0.08	2.50
57361	-13.69	-353.21	64.82	0.34	0.04	2.62
57379	-10.99	-322.51	52.20	0.46	0.07	2.75
57397	-10.50	-303.79	45.32	0.39	0.13	2.84
57415	-13.81	-274.80	29.98	0.32	0.15	2.89
57434	-17.64	-261.14	9.12	0.22	0.12	2.99
57453	-16.13	-262.07	-14.69	0.08	0.10	3.07
57471	-11.47	-279.08	-35.35	-0.03	0.12	3.08
57491	-6.18	-308.43	-49.88	-0.14	0.10	2.91
57510	1.57	-344.09	-57.74	-0.13	0.12	2.62
57528	4.10	-359.77	-57.98	-0.10	0.14	2.46
57547	6.13	-382.28	-54.24	-0.02	0.13	2.19
57566	7.77	-392.56	-44.86	0.06	0.12	1.92
57585	11.14	-389.27	-29.17	0.17	-0.02	1.69
57603	26.03	-371.58	-11.15	0.29	-0.10	1.47
57623	41.75	-340.79	5.98	0.36	-0.08	1.22
57641	47.68	-321.82	13.67	0.41	-0.04	0.98
57659	53.28	-279.51	27.10	0.42	-0.01	0.88
57678	50.17	-234.41	38.01	0.43	0.05	0.72
57696	38.91	-189.12	46.30	0.43	0.09	0.60
57714	24.35	-143.13	51.61	0.43	0.07	0.53
57731	18.02	-119.72	53.13	0.44	0.06	0.50
57749	8.62	-70.24	54.23	0.48	0.01	0.46
57768	6.65	-16.22	52.43	0.53	-0.05	0.43
57786	10.71	42.01	47.81	0.59	-0.08	0.42
57805	14.19	73.32	44.16	0.66	-0.09	0.42
57822	22.96	141.01	34.53	0.70	-0.09	0.41
57840	32.91	217.50	21.70	0.81	-0.09	0.41
57859	43.17	308.11	11.63	0.99	-0.07	0.47
57876	49.26	414.75	9.31	1.05	-0.01	0.57
57893	49.96	467.82	11.60	1.01	0.03	0.62
57911	45.91	499.98	23.06	0.81	0.11	0.84
57928	34.93	499.98	37.66	0.39	0.12	1.30
57946	23.79	499.98	50.89	-0.10	0.09	1.99
57964	21.00	499.98	54.61	-0.31	0.03	2.36
57982	24.83	494.23	41.81	-0.76	-0.09	2.87
58001	39.06	366.88	0.60	-1.01	-0.16	3.00
58019	54.02	228.73	-48.26	-0.73	-0.10	2.93
58038	59.25	175.66	-70.68	-0.20	-0.05	2.86
58056	67.38	120.90	-108.66	0.16	-0.04	2.87
58075	68.51	151.79	-141.01	0.87	0.13	2.88
58093	43.95	253.83	-160.28	1.04	0.30	2.62
58111	-0.23	353.65	-156.39	0.69	0.39	2.29
58130	-48.31	406.77	-140.72	0.29	0.30	2.17
58148	-66.06	415.21	-133.24	0.12	0.20	2.16
58166	-80.37	404.51	-117.36	-0.16	0.01	2.13
58186	-70.11	361.91	-93.75	-0.41	-0.09	2.04
58204	-49.47	297.70	-66.71	-0.48	-0.11	1.96
58224	-29.33	236.66	-39.89	-0.32	-0.07	1.83
58243	-16.25	199.63	-13.03	-0.12	-0.01	1.59
58263	-11.14	184.71	11.26	-0.05	0.01	1.29
58281	-10.96	180.76	21.67	-0.03	0.01	1.04
58299	-12.80	175.78	37.89	-0.00	0.01	0.94
58318	-16.45	179.73	49.03	0.07	0.02	0.77
58336	-21.24	192.58	56.59	0.09	0.01	0.61
58354	-22.69	205.54	59.71	0.05	-0.04	0.49
58372	-21.19	209.98	59.16	-0.00	-0.07	0.39
58391	-15.01	213.50	53.76	-0.02	-0.08	0.34
58410	-7.22	211.52	43.33	-0.05	-0.10	0.23
58428	0.75	207.02	29.25	-0.06	-0.09	0.15
58447	6.73	200.39	14.07	-0.09	-0.08	0.07
58465	8.77	195.68	7.05	-0.13	-0.07	-0.00
58483	11.34	182.98	-3.66	-0.14	-0.07	-0.05
58503	12.16	167.97	-9.93	-0.14	-0.06	-0.12
58522	11.44	153.47	-13.32	-0.13	-0.05	-0.17
58542	8.96	139.98	-14.50	-0.12	-0.05	-0.21
58560	6.82	127.20	-12.89	-0.12	-0.05	-0.26
58580	4.55	114.33	-9.60	-0.12	-0.05	-0.29
58599	2.15	101.30	-5.39	-0.12	-0.05	-0.32
58618	-0.23	87.95	-1.72	-0.12	-0.06	-0.35
58638	-2.41	73.84	1.27	-0.13	-0.06	-0.37
58656	-3.51	66.07	2.82	-0.14	-0.05	-0.39
58676	-5.46	48.97	5.37	-0.14	-0.05	-0.42
58695	-7.48	31.19	6.85	-0.13	-0.05	-0.44
58714	-8.94	13.34	7.80	-0.14	-0.06	-0.45
58733	-8.87	-4.94	8.97	-0.15	-0.07	-0.45
58753	-7.43	-24.60	10.86	-0.14	-0.07	-0.43
58773	-5.13	-43.44	12.88	-0.13	-0.07	-0.42
58793	-3.04	-58.52	15.56	-0.13	-0.07	-0.39
58813	-1.22	-75.65	18.30	-0.17	-0.07	-0.34
58832	1.63	-97.44	19.47	-0.17	-0.06	-0.29
58852	4.24	-118.15	18.78	-0.16	-0.06	-0.22
58871	5.28	-125.67	18.17	-0.16	-0.06	-0.16
58890	7.35	-140.96	17.55	-0.16	-0.05	-0.14
58910	8.04	-158.65	17.35	-0.18	-0.03	-0.09
58928	6.93	-177.49	17.07	-0.19	-0.02	-0.02
58948	5.84	-196.53	15.64	-0.17	-0.03	0.07
58966	5.86	-213.62	13.81	-0.13	-0.03	0.17
58986	4.01	-224.18	12.82	-0.07	0.02	0.27
59004	-0.78	-230.41	10.85	-0.08	0.01	0.39
59022	-1.94	-234.10	8.82	-0.07	-0.00	0.46
59042	-1.53	-239.11	2.91	-0.01	0.00	0.60
59060	-1.95	-236.86	-1.98	0.07	0.06	0.72
59080	-8.47	-228.49	-4.55	0.09	0.09	0.87
59099	-15.03	-220.12	-8.29	0.10	0.06	1.02
59117	-15.96	-212.94	-14.18	0.13	0.01	1.17
59137	-11.76	-204.83	-18.20	0.11	0.03	1.34
59155	-9.83	-202.73	-18.84	0.01	0.01	1.53
59174	-4.27	-209.01	-18.37	-0.04	-0.01	1.62
59193	3.71	-227.74	-17.18	-0.06	0.01	1.78
59213	9.41	-247.53	-16.54	-0.04	0.04	2.00
59232	14.53	-270.81	-14.98	-0.12	0.03	2.19
59250	20.69	-303.07	-8.67	-0.10	0.06	2.33
59269	20.71	-328.77	-0.34	0.01	0.13	2.51
59287	18.40	-336.84	3.14	0.06	0.13	2.61
59306	16.14	-346.07	7.87	0.12	0.09	2.78
59323	17.15	-347.84	12.51	0.22	0.09	2.94
59341	17.67	-339.60	17.15	0.28	0.10	3.12
59359	20.54	-327.53	19.24	0.27	0.08	3.26
59377	22.87	-322.46	18.88	0.25	0.08	3.28
59395	26.69	-317.46	14.65	0.17	0.10	3.26
59413	27.01	-321.91	9.17	0.09	0.13	3.19
59430	23.71	-335.91	4.30	0.00	0.12	3.00
59451	21.15	-356.93	3.62	-0.06	0.08	2.73
59469	22.77	-369.06	6.94	-0.07	0.02	2.59
59487	34.81	-392.81	21.79	-0.09	-0.06	2.35
59507	47.90	-413.02	41.96	-0.01	-0.02	2.08
59526	50.89	-419.77	59.33	0.11	0.05	1.80
59543	42.01	-406.51	69.21	0.32	0.10	1.52
59561	34.33	-390.29	71.38	0.47	0.09	1.22
59579	18.81	-343.12	72.04	0.49	0.06	1.08
59598	9.05	-291.03	65.70	0.48	0.01	0.87
59615	6.93	-241.24	53.22	0.44	-0.05	0.72
59634	8.36	-218.02	45.36	0.38	-0.07	0.59
59652	14.39	-176.59	28.67	0.37	-0.08	0.54
59670	21.30	-136.41	12.53	0.41	-0.07	0.47
59689	27.33	-88.84	-1.01	0.48	-0.06	0.42
59708	31.16	-34.13	-9.19	0.52	-0.04	0.36
59726	31.23	25.15	-11.26	0.58	-0.01	0.31
59745	29.79	57.34	-10.19	0.70	0.01	0.28
59762	25.05	131.01	-5.69	0.75	0.02	0.27
59781	20.29	215.47	-0.87	0.84	-0.00	0.23
59799	19.91	307.59	2.61	0.93	-0.05	0.21
59816	21.73	356.77	3.72	1.05	-0.05	0.24
59834	25.21	461.98	4.97	1.09	-0.05	0.27
59852	30.21	499.98	2.84	1.03	-0.05	0.41
59870	34.06	499.98	-3.75	0.67	-0.03	0.75
59888	33.36	499.98	-11.80	0.09	-0.02	1.40
59906	31.59	499.98	-18.11	-0.05	-0.01	1.90
59926	28.78	499.98	-33.13	-0.62	-0.06	2.75
59944	35.96	478.04	-52.44	-1.31	-0.11	3.04
59963	46.83	291.55	-74.33	-1.23	0.03	2.83
59981	44.86	144.12	-89.78	-0.66	0.09	2.58
59999	42.27	97.93	-92.58	-0.01	0.12	2.59
60019	35.96	66.25	-95.41	0.74	0.24	2.76
60036	19.81	121.46	-102.13	1.00	0.30	2.75
60053	-10.01	227.05	-101.72	0.88	0.33	2.47
60072	-41.20	304.84	-86.00	0.59	0.28	2.21
60090	-54.17	331.54	-76.14	0.35	0.19	2.07
60110	-70.71	363.82	-58.59	0.20	0.16	2.03
60128	-73.93	363.62	-45.21	-0.08	0.04	1.97
60146	-56.96	329.85	-36.94	-0.36	-0.14	1.89
60166	-24.06	271.85	-30.56	-0.40	-0.17	1.84
60184	4.03	220.78	-22.13	-0.26	-0.05	1.71
60204	15.37	189.56	-12.91	-0.14	0.02	1.55
60222	17.17	179.82	-8.90	-0.02	0.07	1.38
60241	14.48	172.94	-1.37	0.06	0.08	1.29
60258	3.07	184.86	9.05	0.14	0.15	1.06
60275	-13.43	201.54	21.16	0.03	0.07	0.87
60294	-19.09	205.51	26.32	-0.12	-0.00	0.72
60313	-24.55	201.17	33.17	-0.17	-0.03	0.66
60331	-23.36	188.20	35.86	-0.15	-0.03	0.55
60350	-21.07	182.74	33.78	-0.11	-0.08	0.49
60369	-12.60	180.05	26.58	-0.15	-0.13	0.42
60388	-0.50	173.42	15.12	-0.19	-0.13	0.33
60406	9.58	163.71	3.10	-0.17	-0.09	0.24
60425	12.45	160.10	-2.26	-0.16	-0.07	0.20
60444	14.88	153.47	-9.45	-0.19	-0.05	0.12
60462	13.55	142.70	-11.54	-0.22	-0.03	0.05
60481	9.26	129.79	-11.12	-0.21	-0.02	-0.02
60500	4.03	115.19	-10.06	-0.23	-0.03	-0.10
60520	-0.06	97.56	-7.40	-0.24	-0.04	-0.16
60540	-2.84	79.30	-3.45	-0.24	-0.06	-0.22
60559	-4.38	61.90	-0.11	-0.22	-0.05	-0.27
60579	-6.61	46.55	1.94	-0.21	-0.06	-0.33
60598	-7.40	39.83	3.28	-0.21	-0.07	-0.36
60617	-7.57	28.23	7.52	-0.20	-0.07	-0.40
60636	-7.69	17.82	11.25	-0.19	-0.06	-0.42
60656	-8.19	8.94	11.93	-0.18	-0.06	-0.43
60675	-7.93	1.77	11.81	-0.17	-0.07	-0.44
60694	-5.62	-5.33	12.24	-0.18	-0.08	-0.44
60714	-2.08	-15.24	11.83	-0.19	-0.08	-0.43
60734	1.27	-25.99	10.59	-0.18	-0.07	-0.40
60754	3.54	-36.32	9.49	-0.17	-0.07	-0.37
60773	4.58	-46.86	8.79	-0.17	-0.06	-0.34
60792	5.14	-57.86	8.41	-0.16	-0.05	-0.30
60811	5.07	-63.49	8.22	-0.15	-0.05	-0.27
60831	4.44	-73.84	8.22	-0.13	-0.04	-0.22
60851	3.05	-81.76	8.50	-0.10	-0.03	-0.16
60869	1.01	-87.19	8.35	-0.07	-0.02	-0.09
60889	-0.75	-92.61	6.62	-0.08	-0.03	-0.00
60908	-1.11	-100.80	4.65	-0.09	-0.03	0.10
60929	-1.57	-110.79	3.59	-0.09	-0.02	0.17
60947	-1.56	-121.72	3.42	-0.10	-0.02	0.26
60966	-1.50	-133.87	3.46	-0.10	-0.01	0.38
60986	-1.74	-148.93	2.43	-0.13	-0.00	0.50
61005	-1.66	-157.59	1.42	-0.13	0.02	0.58
61024	-2.64	-175.77	-0.52	-0.13	0.04	0.62
61043	-4.64	-195.40	-2.85	-0.16	0.03	0.74
61063	-4.71	-218.96	-4.61	-0.19	0.03	0.84
61082	-4.23	-244.48	-6.36	-0.15	0.04	0.91
61102	-4.68	-262.36	-7.63	-0.08	0.05	1.03
61121	-3.43	-274.96	-7.03	-0.06	0.03	1.21
61140	-0.15	-285.48	-5.22	0.00	0.03	1.37
61159	4.09	-287.00	-2.88	0.10	0.04	1.52
61177	6.16	-284.39	-1.30	0.11	0.04	1.62
61196	10.24	-278.75	3.27	0.12	0.06	1.82
61213	12.31	-272.69	9.81	0.17	0.08	2.05
61231	12.70	-262.02	15.84	0.29	0.09	2.26
61250	12.59	-243.96	20.49	0.20	0.09	2.50
61267	13.57	-241.33	22.71	0.10	0.09	2.62
61285	14.82	-254.30	29.30	-0.02	0.14	2.81
61303	12.18	-274.95	34.97	0.08	0.17	2.97
61321	8.68	-284.16	35.78	0.13	0.15	3.12
61339	7.97	-287.98	33.74	0.11	0.14	3.18
61357	6.00	-299.30	26.35	0.10	0.18	3.22
61375	0.73	-310.10	17.50	0.13	0.19	3.20
61393	-5.28	-317.60	8.85	0.08	0.14	3.11
61411	-5.33	-324.42	3.85	0.03	0.11	3.01
61429	-0.64	-345.49	-6.48	-0.04	0.10	2.75
61449	6.85	-372.39	-15.43	-0.13	0.07	2.50
61468	14.34	-406.59	-24.44	-0.19	0.12	2.33
61486	16.69	-435.87	-27.65	-0.01	0.10	2.13
61504	20.63	-433.49	-24.64	0.31	0.04	1.82
61523	23.62	-416.95	-20.57	0.53	-0.03	1.46
61542	33.25	-363.59	-8.64	0.56	-0.06	1.30
61562	44.78	-304.32	7.17	0.50	-0.04	1.04
61580	48.55	-253.51	23.73	0.41	0.02	0.85
61597	42.08	-210.97	37.84	0.37	0.08	0.71
61615	29.19	-171.48	47.78	0.37	0.08	0.61
61633	22.71	-151.26	51.35	0.38	0.07	0.58
61652	12.70	-107.36	56.12	0.43	0.03	0.51
61669	8.07	-57.17	57.80	0.49	-0.02	0.47
61687	9.86	-0.02	54.99	0.56	-0.06	0.43
61706	12.77	30.99	51.06	0.61	-0.09	0.41
61723	21.91	96.41	38.70	0.64	-0.10	0.40
61742	33.77	167.39	21.41	0.72	-0.11	0.39
61760	46.25	246.73	4.36	0.81	-0.10	0.38
61777	51.36	290.08	-2.55	0.88	-0.04	0.39
61796	56.70	381.96	-11.22	0.91	-0.02	0.40
61814	56.76	475.85	-11.00	0.90	0.06	0.50
61832	46.52	499.98	-0.92	0.78	0.17	0.73
61850	32.18	499.98	16.66	0.55	0.14	1.16
61867	27.30	499.98	26.60	0.34	0.15	1.46
61885	19.45	499.98	38.44	-0.32	0.16	2.14
61903	13.60	499.98	25.88	-0.89	0.08	2.72
61920	13.20	469.02	9.06	-1.02	-0.05	2.99
61938	23.25	313.22	-36.56	-0.95	-0.10	2.98
61956	43.12	186.17	-82.18	-0.60	-0.10	2.86
61975	58.20	114.90	-122.13	-0.03	0.00	2.77
61993	57.82	121.03	-151.02	0.65	0.15	2.71
62011	49.84	154.36	-157.52	0.82	0.28	2.48
62028	19.36	240.37	-155.58	0.64	0.30	2.33
62046	-19.17	291.29	-145.84	0.36	0.32	2.09
62066	-53.28	318.73	-133.65	0.28	0.25	1.92
62084	-73.17	335.74	-116.21	0.14	0.12	1.85
62101	-77.04	337.95	-106.32	0.06	0.07	1.84
62120	-75.03	327.71	-81.05	-0.11	-0.03	1.79
62139	-60.47	303.33	-46.22	-0.16	-0.06	1.67
62159	-41.43	278.31	-8.42	-0.17	-0.08	1.54
62178	-24.72	254.47	24.44	-0.18	-0.03	1.38
62198	-15.79	232.01	48.20	-0.17	0.01	1.19
62216	-13.96	214.66	62.01	-0.15	0.02	0.98
62233	-14.42	207.21	64.77	-0.16	0.00	0.88
62252	-15.24	191.64	64.07	-0.19	-0.02	0.69
62271	-13.66	174.47	59.17	-0.20	-0.05	0.52
62290	-10.83	158.45	50.67	-0.19	-0.05	0.38
62308	-6.38	146.47	37.37	-0.14	-0.10	0.29
62327	2.08	141.11	20.08	-0.10	-0.13	0.21
62345	7.20	140.03	11.40	-0.10	-0.13	0.17
62364	14.28	137.54	-5.11	-0.13	-0.08	0.10
62383	14.83	133.88	-20.87	-0.12	-0.07	0.02
62402	12.82	132.46	-32.07	-0.11	-0.08	-0.04
62420	9.83	131.27	-34.68	-0.12	-0.06	-0.10
62440	4.70	127.69	-30.99	-0.14	-0.05	-0.14
62459	1.95	125.21	-27.85	-0.14	-0.05	-0.19
62479	-3.56	119.52	-19.93	-0.16	-0.05	-0.24
62498	-8.53	111.01	-11.52	-0.17	-0.05	-0.26
62517	-12.54	98.39	-3.39	-0.20	-0.06	-0.30
62537	-15.14	81.19	3.95	-0.22	-0.07	-0.34
62556	-15.46	62.21	10.03	-0.22	-0.08	-0.37
62577	-13.98	43.85	13.35	-0.22	-0.08	-0.40
62596	-12.15	24.83	15.37	-0.22	-0.08	-0.42
62615	-9.31	4.58	17.47	-0.22	-0.08	-0.44
62634	-6.23	-12.48	20.26	-0.18	-0.08	-0.46
62654	-3.86	-24.22	22.17	-0.17	-0.08	-0.46
62674	-0.63	-36.47	22.57	-0.19	-0.08	-0.45
62693	3.52	-50.64	22.16	-0.17	-0.08	-0.41
62713	6.91	-62.29	22.05	-0.16	-0.07	-0.36
62732	8.44	-68.66	21.59	-0.16	-0.07	-0.34
62752	9.83	-82.06	19.64	-0.16	-0.05	-0.28
62772	9.52	-94.33	16.24	-0.14	-0.03	-0.21
62792	7.34	-103.96	12.48	-0.12	-0.02	-0.14
62811	4.29	-112.98	9.06	-0.09	-0.01	-0.08
62829	1.05	-119.48	5.51	-0.08	-0.02	-0.00
62849	-0.38	-126.50	1.95	-0.09	-0.02	0.09
62868	-1.68	-136.35	0.11	-0.10	0.00	0.19
62888	-3.74	-147.08	0.09	-0.07	0.02	0.27
62906	-5.14	-151.35	0.29	-0.03	0.01	0.38
62924	-6.33	-157.55	0.08	-0.02	-0.00	0.44
62944	-4.00	-163.04	-0.75	-0.05	-0.00	0.58
62963	-0.98	-173.19	-1.39	-0.06	0.01	0.71
62983	1.77	-184.36	-0.41	-0.03	0.03	0.86
63001	2.82	-192.26	0.85	-0.01	0.05	1.05
63020	2.99	-201.02	2.52	-0.05	0.05	1.21
63038	4.43	-216.14	4.52	-0.10	0.05	1.34
63056	4.91	-226.26	5.66	-0.11	0.06	1.42
63075	3.98	-247.91	8.61	-0.09	0.09	1.55
63094	0.34	-268.19	11.98	-0.06	0.10	1.68
63112	-2.72	-284.55	13.43	-0.02	0.07	1.81
63131	-1.13	-295.94	14.34	0.03	0.07	1.99
63148	-0.15	-299.59	15.67	0.05	0.09	2.09
63167	1.75	-304.46	19.81	0.08	0.10	2.30
63185	2.66	-306.27	25.34	0.14	0.13	2.49
63204	1.68	-302.31	33.00	0.19	0.14	2.65
63221	0.05	-296.84	41.81	0.17	0.13	2.77
63239	0.15	-295.21	45.20	0.21	0.12	2.85
63257	0.35	-285.57	50.05	0.30	0.19	3.04
63275	-7.54	-272.89	47.15	0.22	0.24	3.21
63294	-14.45	-275.05	37.77	0.05	0.16	3.29
63312	-13.21	-283.89	33.02	-0.06	0.10	3.28
63331	-5.72	-311.89	23.47	-0.07	0.12	3.25
63350	-3.17	-339.10	7.92	-0.02	0.18	3.09
63368	-5.62	-361.72	-12.83	-0.03	0.19	2.80
63390	-11.31	-384.48	-27.76	-0.06	0.20	2.50
