Time	Gx	Gy	Gz	Ax	Ay	Az	Clean	Deadlift	Squat	Rest	RowLeft	RowRight	Swing		
8475	-4	12	-1	0.05	-0.04	1.03	0.10	0.03	0.49	0.02	0.34	0.01	0.00
8516	-13	8	-7	0.07	-0.06	1.02	0.05	0.02	0.69	0.01	0.22	0.00	0.00
8557	-19	10	2	0.07	-0.11	1.02	0.04	0.03	0.59	0.03	0.29	0.01	0.00
8597	-8	10	23	0.07	-0.09	0.99	0.04	0.05	0.31	0.08	0.47	0.05	0.00
8637	-1	3	29	0.06	-0.09	0.95	0.04	0.05	0.20	0.08	0.54	0.10	0.00
8677	7	-5	27	0.04	-0.06	0.96	0.05	0.04	0.28	0.06	0.52	0.05	0.00
8718	6	-19	16	0.02	-0.04	0.99	0.04	0.04	0.50	0.07	0.33	0.02	0.00
8757	6	-38	-2	0.05	-0.08	1.03	0.04	0.04	0.60	0.11	0.19	0.01	0.00
8798	15	-48	-18	0.11	-0.06	1.01	0.04	0.04	0.78	0.06	0.08	0.00	0.00
8838	20	-34	-16	0.14	-0.02	1.01	0.04	0.05	0.79	0.06	0.06	0.00	0.00
8878	16	-19	-3	0.12	-0.02	1.04	0.04	0.06	0.81	0.04	0.05	0.00	0.00
8918	7	-5	7	0.13	-0.01	0.97	0.03	0.04	0.86	0.02	0.04	0.00	0.00
8958	2	7	9	0.11	-0.02	0.97	0.03	0.02	0.88	0.02	0.06	0.00	0.00
8998	7	7	6	0.10	-0.03	0.98	0.03	0.02	0.84	0.03	0.08	0.00	0.00
9037	10	6	5	0.10	-0.01	0.97	0.03	0.03	0.81	0.05	0.08	0.00	0.00
9077	13	6	9	0.12	-0.01	0.99	0.03	0.03	0.86	0.03	0.05	0.00	0.00
9117	15	11	16	0.13	0.02	0.98	0.03	0.04	0.86	0.03	0.04	0.00	0.00
9156	6	17	14	0.15	0.02	0.97	0.03	0.03	0.89	0.02	0.03	0.00	0.00
9194	-10	38	2	0.19	0.02	0.98	0.03	0.03	0.89	0.02	0.03	0.00	0.00
9233	-20	58	-9	0.15	-0.03	0.95	0.03	0.03	0.87	0.04	0.03	0.00	0.00
9273	-21	59	-8	0.14	-0.04	0.95	0.02	0.03	0.90	0.02	0.02	0.00	0.00
9314	-13	54	-4	0.12	-0.08	0.90	0.02	0.02	0.95	0.00	0.01	0.00	0.00
9354	-1	34	0	0.06	-0.08	0.83	0.01	0.03	0.95	0.00	0.01	0.00	0.00
9394	5	-7	-2	0.00	-0.06	0.77	0.01	0.01	0.97	0.00	0.00	0.00	0.00
9435	3	-56	-11	-0.02	-0.05	0.71	0.01	0.01	0.98	0.00	0.00	0.00	0.00
9475	0	-109	-14	-0.03	-0.04	0.67	0.01	0.01	0.98	0.00	0.00	0.00	0.00
9515	-3	-152	-9	-0.03	-0.04	0.69	0.01	0.09	0.90	0.00	0.00	0.00	0.00
9557	-8	-190	-5	0.04	-0.02	0.74	0.00	0.63	0.36	0.00	0.00	0.00	0.00
9597	-9	-192	2	0.15	-0.02	0.85	0.00	0.88	0.11	0.00	0.00	0.00	0.00
9638	-12	-166	-2	0.24	-0.03	0.91	0.00	0.89	0.10	0.00	0.00	0.00	0.00
9679	-9	-122	-18	0.29	-0.05	0.97	0.00	0.85	0.15	0.00	0.00	0.00	0.00
9720	-6	-72	-25	0.27	-0.01	1.03	0.01	0.70	0.30	0.00	0.00	0.00	0.00
9761	-11	-43	-28	0.20	-0.02	1.20	0.01	0.65	0.34	0.00	0.00	0.00	0.00
9802	-10	-47	-23	0.17	-0.04	1.36	0.01	0.76	0.24	0.00	0.00	0.00	0.00
9842	-12	-39	-15	0.34	-0.01	1.47	0.00	0.90	0.09	0.00	0.00	0.00	0.00
9883	-25	44	-4	0.55	-0.02	1.54	0.00	0.98	0.02	0.00	0.00	0.00	0.00
9922	-26	170	6	0.50	-0.07	1.47	0.00	0.99	0.00	0.00	0.00	0.00	0.00
9962	-9	258	5	0.43	-0.10	1.55	0.00	1.00	0.00	0.00	0.00	0.00	0.00
10001	6	319	-5	0.38	-0.08	1.74	0.00	1.00	0.00	0.00	0.00	0.00	0.00
10040	6	341	-2	0.29	-0.04	1.81	0.00	1.00	0.00	0.00	0.00	0.00	0.00
10079	1	335	6	0.20	-0.02	1.79	0.03	0.96	0.00	0.00	0.00	0.00	0.02
10117	-3	318	22	0.10	-0.01	1.58	0.30	0.07	0.01	0.00	0.00	0.00	0.62
10157	-11	286	29	0.02	-0.01	1.31	0.49	0.00	0.01	0.00	0.00	0.00	0.50
10195	-13	253	29	0.00	-0.00	1.11	0.70	0.00	0.01	0.00	0.00	0.00	0.29
10235	-6	223	23	0.00	-0.05	0.93	0.73	0.00	0.01	0.00	0.00	0.00	0.26
10274	20	192	13	-0.04	-0.07	0.85	0.44	0.00	0.01	0.00	0.00	0.00	0.55
10312	37	149	3	-0.08	-0.03	0.75	0.05	0.01	0.00	0.00	0.00	0.00	0.94
10351	35	90	-10	-0.13	0.00	0.73	0.01	0.31	0.00	0.00	0.00	0.00	0.68
10390	18	28	-20	-0.18	0.04	0.75	0.00	0.94	0.00	0.00	0.00	0.00	0.06
10429	-11	-67	-22	-0.25	0.04	0.85	0.00	0.94	0.00	0.00	0.00	0.00	0.06
10470	-32	-190	-8	-0.32	-0.02	1.03	0.00	0.42	0.00	0.00	0.00	0.00	0.58
10510	-32	-350	37	-0.44	-0.06	1.61	0.00	0.01	0.00	0.00	0.00	0.00	0.99
10549	-24	-495	104	-0.06	-0.08	2.48	0.00	0.00	0.00	0.00	0.00	0.00	1.00
10589	-15	-416	114	0.68	0.01	3.01	0.00	0.00	0.00	0.00	0.00	0.00	1.00
10628	-23	-227	36	0.32	0.11	3.27	0.00	0.00	0.00	0.00	0.00	0.00	1.00
10668	-71	-230	-50	-0.01	0.12	3.21	0.00	0.00	0.00	0.00	0.00	0.00	1.00
10709	-54	-325	-60	-0.22	0.00	2.94	0.00	0.00	0.00	0.00	0.00	0.00	1.00
10749	-5	-434	-41	-0.01	-0.08	2.51	0.00	0.00	0.00	0.00	0.00	0.00	1.00
10790	-1	-444	-45	0.12	0.05	2.26	0.00	0.00	0.00	0.00	0.00	0.00	1.00
10829	-17	-408	-30	0.27	-0.03	1.93	0.00	0.00	0.00	0.00	0.00	0.00	1.00
10869	-6	-326	-3	0.22	-0.05	1.58	0.00	0.00	0.00	0.00	0.00	0.00	1.00
10909	6	-278	11	0.09	-0.03	1.17	0.00	0.00	0.00	0.00	0.00	0.00	1.00
10948	12	-264	16	0.01	-0.02	0.77	0.00	0.00	0.00	0.00	0.00	0.00	1.00
10987	14	-245	30	0.02	0.01	0.43	0.00	0.00	0.00	0.00	0.00	0.00	1.00
11025	12	-225	37	0.01	-0.02	0.22	0.00	0.00	0.00	0.00	0.00	0.00	1.00
11065	13	-183	36	0.02	-0.04	0.12	0.00	0.00	0.00	0.00	0.00	0.00	1.00
11103	11	-139	12	-0.05	-0.04	-0.03	0.00	0.00	0.00	0.00	0.00	0.00	1.00
11144	5	-81	-12	-0.06	-0.04	-0.30	0.00	0.00	0.00	0.00	0.00	0.00	1.00
11187	6	-55	-18	-0.14	-0.08	-0.44	0.00	0.00	0.00	0.00	0.00	0.00	1.00
11228	2	-34	-17	-0.12	-0.08	-0.56	0.00	0.00	0.00	0.00	0.00	0.00	1.00
11272	1	-25	-11	-0.13	-0.08	-0.63	0.00	0.00	0.00	0.00	0.00	0.00	1.00
11314	2	-2	-7	-0.09	-0.09	-0.69	0.00	0.00	0.00	0.00	0.00	0.00	1.00
11355	7	25	-5	-0.09	-0.10	-0.68	0.00	0.00	0.00	0.00	0.00	0.00	1.00
11397	10	47	-8	-0.08	-0.11	-0.63	0.00	0.00	0.00	0.00	0.00	0.00	1.00
11438	5	69	-6	-0.04	-0.09	-0.55	0.00	0.00	0.00	0.00	0.00	0.00	1.00
11480	-5	102	-2	-0.02	-0.09	-0.39	0.00	0.00	0.00	0.00	0.00	0.00	1.00
11521	-16	118	-6	-0.03	-0.07	-0.24	0.00	0.00	0.00	0.00	0.00	0.00	1.00
11562	-29	124	-10	0.01	-0.06	-0.10	0.00	0.00	0.00	0.00	0.00	0.00	1.00
11604	-41	144	-8	0.05	-0.04	0.12	0.00	0.00	0.00	0.00	0.00	0.00	1.00
11644	-48	157	-4	0.06	-0.04	0.42	0.00	0.00	0.00	0.00	0.00	0.00	1.00
11685	-39	193	2	0.24	-0.07	0.75	0.00	0.00	0.00	0.00	0.00	0.00	1.00
11725	-12	290	1	0.43	-0.15	1.15	0.00	0.00	0.00	0.00	0.00	0.00	1.00
11764	4	404	-20	0.30	-0.08	1.39	0.00	0.00	0.00	0.00	0.00	0.00	1.00
11804	-9	425	-39	0.08	-0.04	1.70	0.00	0.00	0.00	0.00	0.00	0.00	1.00
11843	-36	351	-47	-0.09	-0.08	2.24	0.00	0.00	0.00	0.00	0.00	0.00	1.00
11883	-54	264	-26	0.10	-0.06	2.57	0.00	0.00	0.00	0.00	0.00	0.00	1.00
11922	-53	251	4	0.31	-0.12	2.92	0.00	0.00	0.00	0.00	0.00	0.00	1.00
11961	-38	290	44	0.38	-0.13	3.29	0.00	0.00	0.00	0.00	0.00	0.00	1.00
12000	-8	345	62	0.39	-0.16	3.34	0.00	0.00	0.00	0.00	0.00	0.00	1.00
12039	28	357	92	0.23	-0.05	3.29	0.00	0.00	0.00	0.00	0.00	0.00	1.00
12078	29	331	61	0.12	-0.01	2.90	0.00	0.00	0.00	0.00	0.00	0.00	1.00
12119	9	314	5	0.35	0.03	2.61	0.00	0.00	0.00	0.00	0.00	0.00	1.00
12158	5	372	-37	0.42	-0.05	2.33	0.00	0.00	0.00	0.00	0.00	0.00	1.00
12200	16	381	-43	0.15	0.00	1.85	0.00	0.00	0.00	0.00	0.00	0.00	1.00
12238	21	323	-23	0.01	0.01	1.19	0.00	0.00	0.00	0.00	0.00	0.00	1.00
12278	12	257	3	-0.08	0.03	0.67	0.00	0.00	0.00	0.00	0.00	0.00	1.00
12317	4	180	12	-0.16	-0.01	0.44	0.00	0.00	0.00	0.00	0.00	0.00	1.00
12357	4	79	7	-0.29	-0.01	0.39	0.00	0.00	0.00	0.00	0.00	0.00	1.00
12397	-1	-28	2	-0.47	0.00	0.40	0.00	0.00	0.00	0.00	0.00	0.00	1.00
12437	-12	-233	-6	-0.76	0.00	0.57	0.00	0.00	0.00	0.00	0.00	0.00	1.00
12477	-28	-500	5	-0.89	0.01	1.13	0.00	0.00	0.00	0.00	0.00	0.00	1.00
12518	-61	-500	87	0.19	-0.09	2.36	0.00	0.00	0.00	0.00	0.00	0.00	1.00
12558	-38	-500	124	1.11	-0.11	4.00	0.00	0.00	0.00	0.00	0.00	0.00	1.00
12599	14	-356	71	1.14	-0.05	3.26	0.00	0.00	0.00	0.00	0.00	0.00	1.00
12639	-24	-92	-8	0.47	0.16	2.85	0.00	0.00	0.00	0.00	0.00	0.00	1.00
12679	-118	-198	-76	-0.48	0.10	2.70	0.00	0.00	0.00	0.00	0.00	0.00	1.00
12721	-87	-422	-65	-0.21	-0.15	1.99	0.00	0.00	0.00	0.00	0.00	0.00	1.00
12762	-3	-500	-67	0.02	-0.19	2.02	0.00	0.00	0.00	0.00	0.00	0.00	1.00
12804	24	-482	-73	0.42	0.01	1.80	0.00	0.00	0.00	0.00	0.00	0.00	1.00
12843	15	-331	-33	0.45	0.03	1.55	0.00	0.00	0.00	0.00	0.00	0.00	1.00
12882	12	-221	24	0.17	0.02	0.98	0.00	0.00	0.00	0.00	0.00	0.00	1.00
12923	12	-192	62	-0.03	-0.02	0.43	0.00	0.00	0.00	0.00	0.00	0.00	1.00
12963	8	-180	66	0.02	-0.01	0.18	0.00	0.00	0.00	0.00	0.00	0.00	1.00
13003	-1	-142	55	0.03	-0.06	0.03	0.00	0.00	0.00	0.00	0.00	0.00	1.00
13043	1	-95	29	0.04	-0.06	-0.05	0.00	0.00	0.00	0.00	0.00	0.00	1.00
13084	-3	-56	5	-0.02	-0.06	-0.20	0.00	0.00	0.00	0.00	0.00	0.00	1.00
13125	-1	-39	-18	-0.05	-0.07	-0.34	0.00	0.00	0.00	0.00	0.00	0.00	1.00
13167	2	-21	-25	-0.04	-0.08	-0.43	0.00	0.00	0.00	0.00	0.00	0.00	1.00
13209	8	1	-21	-0.02	-0.08	-0.47	0.00	0.00	0.00	0.00	0.00	0.00	1.00
13249	9	29	-7	-0.01	-0.08	-0.48	0.00	0.00	0.00	0.00	0.00	0.00	1.00
13290	7	55	1	0.00	-0.08	-0.43	0.00	0.00	0.00	0.00	0.00	0.00	1.00
13331	4	78	3	0.01	-0.10	-0.38	0.00	0.00	0.00	0.00	0.00	0.00	1.00
13370	8	100	-1	0.02	-0.10	-0.26	0.00	0.00	0.00	0.00	0.00	0.00	1.00
13411	11	116	-10	0.02	-0.08	-0.11	0.00	0.00	0.00	0.00	0.00	0.00	1.00
13451	10	129	-15	0.05	-0.07	0.05	0.00	0.00	0.00	0.00	0.00	0.00	1.00
13491	6	143	-12	0.07	-0.09	0.31	0.00	0.00	0.00	0.00	0.00	0.00	1.00
13531	-2	159	-7	0.15	-0.07	0.74	0.00	0.00	0.00	0.00	0.00	0.00	1.00
13571	-14	223	-2	0.38	-0.05	0.97	0.00	0.00	0.00	0.00	0.00	0.00	1.00
13612	-12	321	-15	0.36	-0.11	1.27	0.00	0.00	0.00	0.00	0.00	0.00	1.00
13652	8	389	-19	0.30	-0.12	1.63	0.00	0.00	0.00	0.00	0.00	0.00	1.00
13692	15	388	-29	0.06	-0.05	1.99	0.00	0.00	0.00	0.00	0.00	0.00	1.00
13732	11	318	-30	0.06	-0.09	2.40	0.00	0.00	0.00	0.00	0.00	0.00	1.00
13772	8	272	-33	0.15	-0.04	2.68	0.00	0.00	0.00	0.00	0.00	0.00	1.00
13811	-10	254	-18	0.32	0.00	3.17	0.00	0.00	0.00	0.00	0.00	0.00	1.00
13852	-18	318	2	0.44	-0.00	3.12	0.00	0.00	0.00	0.00	0.00	0.00	1.00
13892	-4	355	25	0.28	-0.01	3.05	0.00	0.00	0.00	0.00	0.00	0.00	1.00
13931	4	343	8	0.25	-0.01	2.85	0.00	0.00	0.00	0.00	0.00	0.00	1.00
13970	17	359	14	0.45	-0.01	2.64	0.00	0.00	0.00	0.00	0.00	0.00	1.00
14008	28	394	18	0.30	0.03	2.29	0.00	0.00	0.00	0.00	0.00	0.00	1.00
14047	36	379	16	0.15	0.05	1.83	0.00	0.00	0.00	0.00	0.00	0.00	1.00
14085	33	323	13	-0.01	0.06	1.16	0.00	0.00	0.00	0.00	0.00	0.00	1.00
14124	15	242	3	-0.11	0.04	0.72	0.00	0.00	0.00	0.00	0.00	0.00	1.00
14162	1	148	-10	-0.20	0.01	0.58	0.00	0.00	0.00	0.00	0.00	0.00	1.00
14201	-11	22	-17	-0.32	-0.00	0.53	0.00	0.00	0.00	0.00	0.00	0.00	1.00
14240	-18	-95	-20	-0.51	-0.04	0.52	0.00	0.00	0.00	0.00	0.00	0.00	1.00
14281	-22	-321	-11	-0.79	-0.01	0.76	0.00	0.00	0.00	0.00	0.00	0.00	1.00
14321	-32	-500	52	-0.62	-0.02	1.43	0.00	0.00	0.00	0.00	0.00	0.00	1.00
14361	-35	-500	129	0.51	0.03	2.85	0.00	0.00	0.00	0.00	0.00	0.00	1.00
14400	-48	-500	133	1.40	0.21	4.00	0.00	0.00	0.00	0.00	0.00	0.00	1.00
14439	-78	-308	41	0.99	0.09	3.40	0.00	0.00	0.00	0.00	0.00	0.00	1.00
14478	-90	-118	-60	0.31	-0.00	2.65	0.00	0.00	0.00	0.00	0.00	0.00	1.00
14518	-92	-233	-127	-0.38	-0.05	2.53	0.00	0.00	0.00	0.00	0.00	0.00	1.00
14559	-29	-399	-105	-0.10	-0.16	1.76	0.00	0.00	0.00	0.00	0.00	0.00	1.00
14599	29	-454	-88	0.12	-0.15	1.73	0.00	0.00	0.00	0.00	0.00	0.00	1.00
14638	51	-420	-68	0.37	-0.07	1.71	0.00	0.00	0.00	0.00	0.00	0.00	1.00
14678	44	-319	-26	0.39	-0.00	1.26	0.00	0.00	0.00	0.00	0.00	0.00	1.00
14718	26	-221	18	0.28	0.00	0.77	0.00	0.00	0.00	0.00	0.00	0.00	1.00
14758	20	-158	56	0.16	-0.01	0.48	0.00	0.00	0.00	0.00	0.00	0.00	1.00
14797	18	-126	81	0.11	-0.03	0.23	0.00	0.00	0.00	0.00	0.00	0.00	1.00
14836	16	-94	83	0.12	-0.05	0.05	0.00	0.00	0.00	0.00	0.00	0.00	1.00
14877	13	-61	66	0.05	-0.06	-0.06	0.00	0.00	0.00	0.00	0.00	0.00	1.00
14916	9	-53	49	0.02	-0.05	-0.19	0.00	0.00	0.00	0.00	0.00	0.00	1.00
14957	-1	-35	14	0.04	-0.06	-0.30	0.00	0.00	0.00	0.00	0.00	0.00	1.00
14997	-5	-17	-11	0.01	-0.06	-0.39	0.00	0.00	0.00	0.00	0.00	0.00	1.00
15038	-9	-6	-23	0.01	-0.07	-0.42	0.00	0.00	0.00	0.00	0.00	0.00	1.00
15081	-7	13	-24	0.02	-0.07	-0.43	0.00	0.00	0.00	0.00	0.00	0.00	1.00
15121	-6	38	-21	0.04	-0.06	-0.40	0.00	0.00	0.00	0.00	0.00	0.00	1.00
15163	-9	70	-16	0.06	-0.07	-0.34	0.00	0.00	0.00	0.00	0.00	0.00	1.00
15203	-5	103	-12	0.08	-0.07	-0.23	0.00	0.00	0.00	0.00	0.00	0.00	1.00
15244	-3	138	-6	0.09	-0.06	-0.04	0.00	0.00	0.00	0.00	0.00	0.00	1.00
15284	-4	166	-1	0.08	-0.05	0.20	0.00	0.00	0.00	0.00	0.00	0.00	1.00
15325	0	178	6	0.08	-0.08	0.51	0.00	0.00	0.00	0.00	0.00	0.00	1.00
15365	5	196	11	0.16	-0.09	0.81	0.00	0.00	0.00	0.00	0.00	0.00	1.00
15403	8	230	-0	0.25	-0.11	1.14	0.00	0.00	0.00	0.00	0.00	0.00	1.00
15442	5	280	-22	0.28	-0.03	1.31	0.00	0.00	0.00	0.00	0.00	0.00	1.00
15481	-3	309	-56	0.18	-0.06	1.54	0.00	0.00	0.00	0.00	0.00	0.00	1.00
15520	-7	298	-64	0.13	-0.07	1.94	0.00	0.00	0.00	0.00	0.00	0.00	1.00
15561	-16	269	-54	0.23	-0.06	2.30	0.00	0.00	0.00	0.00	0.00	0.00	1.00
15602	-24	258	-29	0.22	-0.01	2.82	0.00	0.00	0.00	0.00	0.00	0.00	1.00
15641	-33	252	4	0.46	-0.03	3.05	0.00	0.00	0.00	0.00	0.00	0.00	1.00
15682	-21	334	36	0.53	0.01	3.11	0.00	0.00	0.00	0.00	0.00	0.00	1.00
15721	-12	396	32	0.21	0.01	3.02	0.00	0.00	0.00	0.00	0.00	0.00	1.00
15761	-13	354	16	0.15	-0.00	2.88	0.00	0.00	0.00	0.00	0.00	0.00	1.00
15801	-0	350	18	0.28	0.02	2.55	0.00	0.00	0.00	0.00	0.00	0.00	1.00
15841	4	355	16	0.13	-0.06	2.11	0.00	0.00	0.00	0.00	0.00	0.00	1.00
15881	13	329	12	0.15	0.00	1.72	0.00	0.00	0.00	0.00	0.00	0.00	1.00
15920	27	298	-7	0.03	-0.06	1.15	0.00	0.00	0.00	0.00	0.00	0.00	1.00
15959	24	242	-25	-0.11	0.02	0.69	0.00	0.00	0.00	0.00	0.00	0.00	1.00
15999	4	138	-26	-0.30	0.03	0.58	0.00	0.00	0.00	0.00	0.00	0.00	1.00
16039	-8	-4	-9	-0.37	0.03	0.52	0.00	0.00	0.00	0.00	0.00	0.00	1.00
16078	-15	-162	19	-0.47	-0.00	0.59	0.00	0.00	0.00	0.00	0.00	0.00	1.00
16119	-25	-373	66	-0.64	0.02	0.89	0.00	0.00	0.00	0.00	0.00	0.00	1.00
16158	-69	-499	116	-0.56	0.06	1.72	0.00	0.00	0.00	0.00	0.00	0.00	1.00
16198	-98	-500	144	0.41	-0.06	2.92	0.00	0.00	0.00	0.00	0.00	0.00	1.00
16237	-60	-499	99	0.99	-0.00	4.00	0.00	0.00	0.00	0.00	0.00	0.00	1.00
16276	-54	-321	23	0.78	0.01	3.11	0.00	0.00	0.00	0.00	0.00	0.00	1.00
16315	-70	-165	-83	0.14	0.02	2.94	0.00	0.00	0.00	0.00	0.00	0.00	1.00
16354	-84	-281	-139	-0.24	-0.03	2.47	0.00	0.00	0.00	0.00	0.00	0.00	1.00
16395	-12	-427	-110	-0.14	-0.14	2.03	0.00	0.00	0.00	0.00	0.00	0.00	1.00
16435	46	-498	-79	0.11	-0.07	2.20	0.00	0.00	0.00	0.00	0.00	0.00	1.00
16474	46	-429	-33	0.40	0.04	1.82	0.00	0.00	0.00	0.00	0.00	0.00	1.00
16514	31	-308	14	0.30	-0.01	1.33	0.00	0.00	0.00	0.00	0.00	0.00	1.00
16553	16	-228	38	0.15	-0.01	0.82	0.00	0.00	0.00	0.00	0.00	0.00	1.00
16592	6	-180	47	0.11	-0.07	0.47	0.00	0.00	0.00	0.00	0.00	0.00	1.00
16631	6	-146	52	0.07	-0.06	0.22	0.00	0.00	0.00	0.00	0.00	0.00	1.00
16670	6	-125	47	0.07	-0.06	0.07	0.00	0.00	0.00	0.00	0.00	0.00	1.00
16709	8	-101	39	0.02	-0.05	-0.06	0.00	0.00	0.00	0.00	0.00	0.00	1.00
16748	11	-89	24	-0.01	-0.06	-0.15	0.00	0.00	0.00	0.00	0.00	0.00	1.00
16790	14	-79	5	-0.04	-0.04	-0.36	0.00	0.00	0.00	0.00	0.00	0.00	1.00
16831	13	-61	-14	-0.04	-0.08	-0.44	0.00	0.00	0.00	0.00	0.00	0.00	1.00
16871	12	-49	-25	-0.05	-0.07	-0.44	0.00	0.00	0.00	0.00	0.00	0.00	1.00
16913	9	-29	-31	-0.07	-0.07	-0.48	0.00	0.00	0.00	0.00	0.00	0.00	1.00
16953	1	-17	-15	-0.05	-0.10	-0.51	0.00	0.00	0.00	0.00	0.00	0.00	1.00
16995	3	3	7	-0.03	-0.12	-0.45	0.00	0.00	0.00	0.00	0.00	0.00	1.00
17035	5	38	18	0.04	-0.09	-0.34	0.00	0.00	0.00	0.00	0.00	0.00	1.00
17075	3	103	12	0.11	-0.08	-0.22	0.00	0.00	0.00	0.00	0.00	0.00	1.00
17116	7	165	-1	0.12	-0.07	-0.08	0.00	0.00	0.00	0.00	0.00	0.00	1.00
17156	5	230	-4	0.19	-0.04	0.09	0.00	0.00	0.00	0.00	0.00	0.00	1.00
17196	-0	291	-13	0.19	-0.05	0.31	0.00	0.00	0.00	0.00	0.00	0.00	1.00
17236	-19	336	-20	0.15	-0.01	0.68	0.00	0.00	0.00	0.00	0.00	0.00	1.00
17276	-35	329	-34	0.06	-0.07	1.10	0.00	0.00	0.00	0.00	0.00	0.00	1.00
17316	-29	304	-57	0.14	-0.08	1.51	0.00	0.00	0.00	0.00	0.00	0.00	1.00
17356	-14	290	-61	0.16	-0.06	1.90	0.00	0.00	0.00	0.00	0.00	0.00	1.00
17397	-12	288	-49	0.26	-0.02	2.24	0.00	0.00	0.00	0.00	0.00	0.00	1.00
17436	-14	316	-27	0.33	-0.00	2.44	0.00	0.00	0.00	0.00	0.00	0.00	1.00
17476	-25	342	-13	0.27	0.01	2.61	0.00	0.00	0.00	0.00	0.00	0.00	1.00
17514	-30	337	-3	0.11	-0.01	2.75	0.00	0.00	0.00	0.00	0.00	0.00	1.00
17554	-20	263	18	0.04	0.05	2.98	0.00	0.00	0.00	0.00	0.00	0.00	1.00
17592	-17	228	31	0.31	0.07	3.03	0.00	0.00	0.00	0.00	0.00	0.00	1.00
17632	-4	300	30	0.48	0.04	2.72	0.00	0.00	0.00	0.00	0.00	0.00	1.00
17670	2	404	42	0.51	0.04	2.44	0.00	0.00	0.00	0.00	0.00	0.00	1.00
17708	6	456	56	0.12	-0.02	2.35	0.00	0.00	0.00	0.00	0.00	0.00	1.00
17747	21	399	53	0.06	-0.05	2.04	0.00	0.00	0.00	0.00	0.00	0.00	1.00
17786	41	319	48	-0.05	0.01	1.21	0.00	0.00	0.00	0.00	0.00	0.00	1.00
17827	38	221	27	-0.17	0.03	0.77	0.00	0.00	0.00	0.00	0.00	0.00	1.00
17866	17	97	-5	-0.29	0.04	0.61	0.00	0.00	0.00	0.00	0.00	0.00	1.00
17906	-10	-70	-32	-0.48	0.07	0.64	0.00	0.00	0.00	0.00	0.00	0.00	1.00
17948	-47	-282	-24	-0.51	0.12	0.78	0.00	0.00	0.00	0.00	0.00	0.00	1.00
17989	-73	-500	32	-0.66	0.06	1.48	0.00	0.00	0.00	0.00	0.00	0.00	1.00
18030	-77	-500	106	0.13	0.01	2.73	0.00	0.00	0.00	0.00	0.00	0.00	1.00
18070	-72	-500	107	0.89	0.31	4.00	0.00	0.00	0.00	0.00	0.00	0.00	1.00
18110	-85	-461	54	1.04	0.12	3.54	0.00	0.00	0.00	0.00	0.00	0.00	1.00
18151	-85	-203	-76	0.27	0.02	2.89	0.00	0.00	0.00	0.00	0.00	0.00	1.00
18192	-55	-254	-132	-0.13	-0.04	2.06	0.00	0.00	0.00	0.00	0.00	0.00	1.00
18235	11	-375	-75	-0.23	-0.08	1.86	0.00	0.00	0.00	0.00	0.00	0.00	1.00
18277	48	-500	-27	-0.01	-0.05	2.02	0.00	0.00	0.00	0.00	0.00	0.00	1.00
18319	40	-467	0	0.42	0.04	1.60	0.00	0.00	0.00	0.00	0.00	0.00	1.00
18360	17	-318	23	0.40	0.00	0.99	0.00	0.00	0.00	0.00	0.00	0.00	1.00
18399	0	-205	50	0.20	0.01	0.71	0.00	0.00	0.00	0.00	0.00	0.00	1.00
18439	4	-142	61	0.15	-0.05	0.36	0.00	0.00	0.00	0.00	0.00	0.00	1.00
18479	12	-111	53	0.04	-0.04	0.17	0.00	0.00	0.00	0.00	0.00	0.00	1.00
18519	20	-97	35	0.03	-0.07	0.03	0.00	0.00	0.00	0.00	0.00	0.00	1.00
18559	16	-95	17	-0.04	-0.05	-0.13	0.00	0.00	0.00	0.00	0.00	0.00	1.00
18600	4	-102	-3	-0.03	-0.07	-0.34	0.00	0.00	0.00	0.00	0.00	0.00	1.00
18642	-5	-88	-7	-0.01	-0.09	-0.46	0.00	0.00	0.00	0.00	0.00	0.00	1.00
18683	-4	-66	-3	-0.03	-0.08	-0.51	0.00	0.00	0.00	0.00	0.00	0.00	1.00
18724	-12	-37	2	-0.00	-0.10	-0.60	0.00	0.00	0.00	0.00	0.00	0.00	1.00
18766	-8	9	7	-0.02	-0.08	-0.63	0.00	0.00	0.00	0.00	0.00	0.00	1.00
18807	-6	35	10	0.03	-0.08	-0.62	0.00	0.00	0.00	0.00	0.00	0.00	1.00
18847	-0	85	-4	0.05	-0.09	-0.55	0.00	0.00	0.00	0.00	0.00	0.00	1.00
18888	-0	118	-17	0.02	-0.07	-0.40	0.00	0.00	0.00	0.00	0.00	0.00	1.00
18928	-5	132	-27	0.03	-0.09	-0.27	0.00	0.00	0.00	0.00	0.00	0.00	1.00
18970	-9	149	-31	0.06	-0.08	-0.09	0.00	0.00	0.00	0.00	0.00	0.00	1.00
19010	-13	163	-36	0.04	-0.07	0.11	0.00	0.00	0.00	0.00	0.00	0.00	1.00
19051	-20	179	-28	0.11	-0.08	0.34	0.00	0.00	0.00	0.00	0.00	0.00	1.00
19091	-27	209	-13	0.15	-0.08	0.66	0.00	0.00	0.00	0.00	0.00	0.00	1.00
19131	-25	247	16	0.25	-0.06	1.07	0.00	0.00	0.00	0.00	0.00	0.00	1.00
19172	-7	304	32	0.22	-0.03	1.24	0.00	0.00	0.00	0.00	0.00	0.00	1.00
19211	5	328	18	0.17	-0.07	1.56	0.00	0.00	0.00	0.00	0.00	0.00	1.00
19251	11	319	-1	0.14	0.02	2.05	0.00	0.00	0.00	0.00	0.00	0.00	1.00
19290	2	309	-23	0.21	-0.02	2.42	0.00	0.00	0.00	0.00	0.00	0.00	1.00
19330	-13	308	-39	0.23	0.03	2.90	0.00	0.00	0.00	0.00	0.00	0.00	1.00
19370	-31	313	-58	0.31	-0.01	3.20	0.00	0.00	0.00	0.00	0.00	0.00	1.00
19410	-30	331	-37	0.26	-0.01	3.25	0.00	0.00	0.00	0.00	0.00	0.00	1.00
19452	-6	343	-20	0.31	0.00	3.17	0.00	0.00	0.00	0.00	0.00	0.00	1.00
19490	-3	353	8	0.19	0.15	3.02	0.00	0.00	0.00	0.00	0.00	0.00	1.00
19530	-18	348	31	0.32	0.16	2.64	0.00	0.00	0.00	0.00	0.00	0.00	1.00
19569	-9	393	57	0.35	0.14	2.33	0.00	0.00	0.00	0.00	0.00	0.00	1.00
19608	7	395	61	0.17	0.04	1.96	0.00	0.00	0.00	0.00	0.00	0.00	1.00
19647	52	346	39	0.04	0.04	1.32	0.00	0.00	0.00	0.00	0.00	0.00	1.00
19687	58	264	14	-0.15	0.06	0.78	0.00	0.00	0.00	0.00	0.00	0.00	1.00
19726	35	158	-17	-0.23	0.05	0.60	0.00	0.00	0.00	0.00	0.00	0.00	1.00
19767	3	21	-40	-0.37	0.09	0.56	0.00	0.00	0.00	0.00	0.00	0.00	1.00
19805	-34	-178	-26	-0.62	0.10	0.57	0.00	0.00	0.00	0.00	0.00	0.00	1.00
19846	-60	-441	37	-0.73	0.07	0.86	0.00	0.00	0.00	0.00	0.00	0.00	1.00
19887	-72	-500	128	-0.54	0.00	1.60	0.00	0.00	0.00	0.00	0.00	0.00	1.00
19927	-90	-500	161	0.48	0.20	3.32	0.00	0.00	0.00	0.00	0.00	0.00	1.00
19968	-78	-500	86	1.14	0.28	3.99	0.00	0.00	0.00	0.00	0.00	0.00	1.00
20008	-74	-251	-42	0.80	0.11	3.19	0.00	0.00	0.00	0.00	0.00	0.00	1.00
20048	-77	-188	-142	-0.22	0.04	3.07	0.00	0.00	0.00	0.00	0.00	0.00	1.00
20090	-29	-389	-116	-0.12	-0.06	2.43	0.00	0.00	0.00	0.00	0.00	0.00	1.00
20131	51	-474	-60	-0.01	-0.14	2.07	0.00	0.00	0.00	0.00	0.00	0.00	1.00
20173	65	-500	-24	0.23	0.07	2.08	0.00	0.00	0.00	0.00	0.00	0.00	1.00
20213	32	-416	16	0.46	0.09	1.68	0.00	0.00	0.00	0.00	0.00	0.00	1.00
20252	21	-291	48	0.30	0.03	1.08	0.00	0.00	0.00	0.00	0.00	0.00	1.00
20291	20	-222	68	0.10	0.03	0.68	0.00	0.00	0.00	0.00	0.00	0.00	1.00
20330	24	-207	65	-0.03	-0.02	0.32	0.00	0.00	0.00	0.00	0.00	0.00	1.00
20370	26	-201	57	-0.03	-0.04	0.12	0.00	0.00	0.00	0.00	0.00	0.00	1.00
20411	28	-173	45	0.00	-0.05	-0.02	0.00	0.00	0.00	0.00	0.00	0.00	1.00
20451	23	-135	32	-0.03	-0.05	-0.15	0.00	0.00	0.00	0.00	0.00	0.00	1.00
20492	12	-102	18	-0.08	-0.05	-0.31	0.00	0.00	0.00	0.00	0.00	0.00	1.00
20533	11	-68	8	-0.13	-0.13	-0.49	0.00	0.00	0.00	0.00	0.00	0.00	1.00
20574	20	-48	3	-0.16	-0.13	-0.55	0.00	0.00	0.00	0.00	0.00	0.00	1.00
20615	14	-29	-3	-0.18	-0.11	-0.65	0.00	0.00	0.00	0.00	0.00	0.00	1.00
20656	2	-9	-1	-0.16	-0.15	-0.65	0.00	0.00	0.00	0.00	0.00	0.00	1.00
20698	-3	25	-9	-0.15	-0.16	-0.67	0.00	0.00	0.00	0.00	0.00	0.00	1.00
20739	-13	53	-25	-0.14	-0.14	-0.60	0.00	0.00	0.00	0.00	0.00	0.00	1.00
20779	-23	79	-30	-0.09	-0.12	-0.53	0.00	0.00	0.00	0.00	0.00	0.00	1.00
20821	-28	105	-27	-0.05	-0.11	-0.44	0.00	0.00	0.00	0.00	0.00	0.00	1.00
20862	-35	130	-22	0.02	-0.06	-0.25	0.00	0.00	0.00	0.00	0.00	0.00	1.00
20903	-48	160	-10	0.04	-0.06	-0.11	0.00	0.00	0.00	0.00	0.00	0.00	1.00
20944	-50	185	3	0.08	-0.05	0.06	0.00	0.00	0.00	0.00	0.00	0.00	1.00
20984	-47	210	13	0.11	-0.08	0.35	0.00	0.00	0.00	0.00	0.00	0.00	1.00
21024	-24	247	17	0.23	-0.13	0.69	0.00	0.00	0.00	0.00	0.00	0.00	1.00
21064	7	292	17	0.32	-0.10	0.97	0.00	0.00	0.00	0.00	0.00	0.00	1.00
21103	25	362	-2	0.26	-0.04	1.31	0.00	0.00	0.00	0.00	0.00	0.00	1.00
21143	23	387	-17	0.21	-0.02	1.75	0.00	0.00	0.00	0.00	0.00	0.00	1.00
21182	13	380	-31	0.20	-0.00	2.13	0.00	0.00	0.00	0.00	0.00	0.00	1.00
21222	-11	339	-34	0.08	0.06	2.36	0.00	0.00	0.00	0.00	0.00	0.00	1.00
21262	-36	286	-30	0.15	0.01	2.71	0.00	0.00	0.00	0.00	0.00	0.00	1.00
21303	-19	266	6	0.30	-0.03	3.09	0.00	0.00	0.00	0.00	0.00	0.00	1.00
21343	6	299	35	0.49	0.06	3.32	0.00	0.00	0.00	0.00	0.00	0.00	1.00
21381	6	370	33	0.41	0.04	3.30	0.00	0.00	0.00	0.00	0.00	0.00	1.00
21421	21	366	9	0.18	0.02	3.02	0.00	0.00	0.00	0.00	0.00	0.00	1.00
21459	12	350	-5	0.37	0.08	2.69	0.00	0.00	0.00	0.00	0.00	0.00	1.00
21499	15	417	-14	0.50	0.02	2.47	0.00	0.00	0.00	0.00	0.00	0.00	1.00
21539	26	443	4	0.20	0.07	2.00	0.00	0.00	0.00	0.00	0.00	0.00	1.00
21577	33	384	34	-0.13	0.11	1.27	0.00	0.00	0.00	0.00	0.00	0.00	1.00
21616	19	268	49	-0.12	0.09	0.84	0.00	0.00	0.00	0.00	0.00	0.00	1.00
21654	-4	163	27	-0.22	0.07	0.63	0.00	0.00	0.00	0.00	0.00	0.00	1.00
21694	-29	8	-2	-0.46	0.03	0.59	0.00	0.00	0.00	0.00	0.00	0.00	1.00
21735	-50	-211	-22	-0.50	0.08	0.70	0.00	0.00	0.00	0.00	0.00	0.00	1.00
21775	-72	-435	15	-0.68	0.06	1.08	0.00	0.00	0.00	0.00	0.00	0.00	1.00
21816	-87	-500	76	-0.52	0.05	1.72	0.00	0.00	0.00	0.00	0.00	0.00	1.00
21857	-101	-500	82	0.29	0.19	3.38	0.00	0.00	0.00	0.00	0.00	0.00	1.00
21897	-84	-500	39	1.21	0.26	4.00	0.00	0.00	0.00	0.00	0.00	0.00	1.00
21937	-76	-315	-76	0.84	0.10	3.09	0.00	0.00	0.00	0.00	0.00	0.00	1.00
21976	-86	-224	-143	0.02	-0.05	2.88	0.00	0.00	0.00	0.00	0.00	0.00	1.00
22018	-23	-361	-128	-0.05	-0.15	2.21	0.00	0.00	0.00	0.00	0.00	0.00	1.00
22059	55	-423	-89	0.17	-0.16	1.84	0.00	0.00	0.00	0.00	0.00	0.00	1.00
22099	80	-399	-25	0.35	-0.01	1.67	0.00	0.00	0.00	0.00	0.00	0.00	1.00
22140	57	-315	33	0.38	0.06	1.30	0.00	0.00	0.00	0.00	0.00	0.00	1.00
22179	29	-234	66	0.27	0.03	0.83	0.00	0.00	0.00	0.00	0.00	0.00	1.00
22219	25	-183	78	0.14	-0.01	0.49	0.00	0.00	0.00	0.00	0.00	0.00	1.00
22260	18	-162	64	0.07	-0.01	0.21	0.00	0.00	0.00	0.00	0.00	0.00	1.00
22298	12	-141	39	0.06	-0.05	0.04	0.00	0.00	0.00	0.00	0.00	0.00	1.00
22339	9	-122	12	0.04	-0.05	-0.11	0.00	0.00	0.00	0.00	0.00	0.00	1.00
22379	3	-102	-9	0.03	-0.06	-0.23	0.00	0.00	0.00	0.00	0.00	0.00	1.00
22421	-3	-81	-14	0.02	-0.04	-0.35	0.00	0.00	0.00	0.00	0.00	0.00	1.00
22461	-10	-65	-8	-0.01	-0.06	-0.42	0.00	0.00	0.00	0.00	0.00	0.00	1.00
22503	-12	-50	-0	-0.03	-0.07	-0.49	0.00	0.00	0.00	0.00	0.00	0.00	1.00
22545	-12	-31	5	-0.00	-0.05	-0.56	0.00	0.00	0.00	0.00	0.00	0.00	1.00
22586	-12	3	-1	-0.03	-0.06	-0.56	0.00	0.00	0.00	0.00	0.00	0.00	1.00
22627	-9	33	-11	0.01	-0.05	-0.52	0.00	0.00	0.00	0.00	0.00	0.00	1.00
22668	-8	74	-12	0.02	-0.05	-0.46	0.00	0.00	0.00	0.00	0.00	0.00	1.00
22708	-8	114	-3	0.06	-0.05	-0.29	0.00	0.00	0.00	0.00	0.00	0.00	1.00
22749	-7	152	7	0.08	-0.04	-0.13	0.00	0.00	0.00	0.00	0.00	0.00	1.00
22789	-4	192	16	0.13	-0.06	0.03	0.00	0.00	0.00	0.00	0.00	0.00	1.00
22830	-1	235	24	0.14	-0.05	0.28	0.00	0.00	0.00	0.00	0.00	0.00	1.00
22870	0	267	30	0.17	-0.05	0.71	0.00	0.00	0.00	0.00	0.00	0.00	1.00
22910	4	315	23	0.27	-0.05	0.97	0.00	0.00	0.00	0.00	0.00	0.00	1.00
22949	9	357	0	0.17	-0.00	1.27	0.00	0.00	0.00	0.00	0.00	0.00	1.00
22988	3	348	-21	0.04	-0.04	1.63	0.00	0.00	0.00	0.00	0.00	0.00	1.00
23027	-1	295	-39	0.05	-0.03	1.89	0.00	0.00	0.00	0.00	0.00	0.00	1.00
23068	-6	269	-45	0.20	-0.06	2.25	0.00	0.00	0.00	0.00	0.00	0.00	1.00
23108	-6	282	-35	0.29	-0.01	2.68	0.00	0.00	0.00	0.00	0.00	0.00	1.00
23149	-12	327	-14	0.35	0.02	3.00	0.00	0.00	0.00	0.00	0.00	0.00	1.00
23189	-21	350	3	0.23	0.05	3.29	0.00	0.00	0.00	0.00	0.00	0.00	1.00
23228	-13	349	3	0.30	-0.01	3.19	0.00	0.00	0.00	0.00	0.00	0.00	1.00
23269	-13	339	-1	0.15	0.04	2.90	0.00	0.00	0.00	0.00	0.00	0.00	1.00
23308	-9	326	15	0.29	0.03	2.63	0.00	0.00	0.00	0.00	0.00	0.00	1.00
23348	15	358	38	0.34	0.03	2.34	0.00	0.00	0.00	0.00	0.00	0.00	1.00
23387	33	391	49	0.26	0.08	2.03	0.00	0.00	0.00	0.00	0.00	0.00	1.00
23426	41	355	30	-0.02	0.05	1.37	0.00	0.00	0.00	0.00	0.00	0.00	1.00
23466	31	264	-1	-0.13	0.07	0.84	0.00	0.00	0.00	0.00	0.00	0.00	1.00
23506	4	160	-24	-0.24	0.06	0.62	0.00	0.00	0.00	0.00	0.00	0.00	1.00
23545	-18	18	-22	-0.40	0.04	0.54	0.00	0.00	0.00	0.00	0.00	0.00	1.00
23586	-32	-185	3	-0.53	0.03	0.54	0.00	0.00	0.00	0.00	0.00	0.00	1.00
23626	-50	-414	39	-0.67	0.05	0.87	0.00	0.00	0.00	0.00	0.00	0.00	1.00
23666	-79	-499	95	-0.47	0.07	1.60	0.00	0.00	0.00	0.00	0.00	0.00	1.00
23707	-94	-500	128	0.36	0.14	3.14	0.00	0.00	0.00	0.00	0.00	0.00	1.00
23747	-84	-500	76	1.17	0.16	4.00	0.00	0.00	0.00	0.00	0.00	0.00	1.00
23787	-87	-290	-65	0.89	0.03	3.12	0.00	0.00	0.00	0.00	0.00	0.00	1.00
23826	-92	-178	-163	0.03	-0.01	2.81	0.00	0.00	0.00	0.00	0.00	0.00	1.00
23867	-32	-333	-149	-0.08	-0.16	2.31	0.00	0.00	0.00	0.00	0.00	0.00	1.00
23909	61	-417	-89	0.05	-0.15	1.97	0.00	0.00	0.00	0.00	0.00	0.00	1.00
23949	85	-427	-26	0.26	0.02	1.84	0.00	0.00	0.00	0.00	0.00	0.00	1.00
23989	55	-359	41	0.40	0.08	1.46	0.00	0.00	0.00	0.00	0.00	0.00	1.00
24028	26	-273	87	0.28	0.04	1.13	0.00	0.00	0.00	0.00	0.00	0.00	1.00
24068	13	-217	99	0.18	-0.01	0.70	0.00	0.00	0.00	0.00	0.00	0.00	1.00
24108	7	-190	77	0.08	-0.04	0.37	0.00	0.00	0.00	0.00	0.00	0.00	1.00
24147	4	-170	61	0.09	-0.04	0.15	0.00	0.00	0.00	0.00	0.00	0.00	1.00
24188	-0	-138	35	0.08	-0.08	-0.01	0.00	0.00	0.00	0.00	0.00	0.00	1.00
24228	-3	-103	9	0.07	-0.05	-0.12	0.00	0.00	0.00	0.00	0.00	0.00	1.00
24269	-12	-65	-15	0.03	-0.06	-0.25	0.00	0.00	0.00	0.00	0.00	0.00	1.00
24310	-18	-47	-22	0.02	-0.07	-0.39	0.00	0.00	0.00	0.00	0.00	0.00	1.00
24351	-19	-28	-18	0.00	-0.08	-0.46	0.00	0.00	0.00	0.00	0.00	0.00	1.00
24394	-17	-13	-20	-0.01	-0.07	-0.50	0.00	0.00	0.00	0.00	0.00	0.00	1.00
24435	-11	8	-26	0.02	-0.07	-0.54	0.00	0.00	0.00	0.00	0.00	0.00	1.00
24478	-9	38	-27	0.02	-0.06	-0.52	0.00	0.00	0.00	0.00	0.00	0.00	1.00
24519	-5	68	-20	0.03	-0.06	-0.46	0.00	0.00	0.00	0.00	0.00	0.00	1.00
24561	-0	104	-1	0.05	-0.06	-0.33	0.00	0.00	0.00	0.00	0.00	0.00	1.00
24604	2	135	16	0.07	-0.05	-0.16	0.00	0.00	0.00	0.00	0.00	0.00	1.00
24645	2	162	25	0.06	-0.06	0.01	0.00	0.00	0.00	0.00	0.00	0.00	1.00
24685	0	184	25	0.08	-0.07	0.22	0.00	0.00	0.00	0.00	0.00	0.00	1.00
24726	-3	205	24	0.09	-0.07	0.57	0.00	0.00	0.00	0.00	0.00	0.00	1.00
24767	-4	226	22	0.24	-0.07	0.96	0.00	0.00	0.00	0.00	0.00	0.00	1.00
24809	2	289	9	0.27	-0.07	1.15	0.00	0.00	0.00	0.00	0.00	0.00	1.00
24850	9	322	-16	0.18	-0.08	1.46	0.00	0.00	0.00	0.00	0.00	0.00	1.00
24891	6	313	-39	0.14	-0.03	1.91	0.00	0.00	0.00	0.00	0.00	0.00	1.00
24932	2	294	-54	0.21	-0.02	2.15	0.00	0.00	0.00	0.00	0.00	0.00	1.00
24973	-8	291	-45	0.17	-0.01	2.47	0.00	0.00	0.00	0.00	0.00	0.00	1.00
25016	-13	262	-5	0.28	0.02	2.97	0.00	0.00	0.00	0.00	0.00	0.00	1.00
25057	0	291	17	0.47	0.00	3.40	0.00	0.00	0.00	0.00	0.00	0.00	1.00
25095	12	351	20	0.44	0.08	3.25	0.00	0.00	0.00	0.00	0.00	0.00	1.00
25135	6	376	19	0.19	0.07	2.93	0.00	0.00	0.00	0.00	0.00	0.00	1.00
25174	-1	348	22	0.24	0.05	2.95	0.00	0.00	0.00	0.00	0.00	0.00	1.00
25214	4	365	33	0.37	-0.01	2.61	0.00	0.00	0.00	0.00	0.00	0.00	1.00
25253	18	403	52	0.28	-0.03	2.20	0.00	0.00	0.00	0.00	0.00	0.00	1.00
25293	38	393	60	0.14	-0.06	1.69	0.00	0.00	0.00	0.00	0.00	0.00	1.00
25332	54	347	23	-0.01	-0.04	0.96	0.00	0.00	0.00	0.00	0.00	0.00	1.00
25372	45	279	-20	-0.13	0.03	0.57	0.00	0.00	0.00	0.00	0.00	0.00	1.00
25413	16	179	-49	-0.27	0.05	0.45	0.00	0.00	0.00	0.00	0.00	0.00	1.00
25453	-20	21	-47	-0.46	0.09	0.41	0.00	0.00	0.00	0.00	0.00	0.00	1.00
25494	-46	-206	-15	-0.72	0.05	0.40	0.00	0.00	0.00	0.00	0.00	0.00	1.00
25535	-71	-500	34	-0.93	0.10	0.67	0.00	0.00	0.00	0.00	0.00	0.00	1.00
25575	-94	-500	98	-0.56	0.04	1.45	0.00	0.00	0.00	0.00	0.00	0.00	1.00
25616	-106	-500	101	0.58	0.19	3.39	0.00	0.00	0.00	0.00	0.00	0.00	1.00
25655	-89	-500	36	1.40	0.26	4.00	0.00	0.00	0.00	0.00	0.00	0.00	1.00
25694	-78	-222	-66	0.88	0.02	3.34	0.00	0.00	0.00	0.00	0.00	0.00	1.00
25735	-77	-165	-131	-0.28	-0.08	3.13	0.00	0.00	0.00	0.00	0.00	0.00	1.00
25776	-12	-366	-104	-0.17	-0.13	2.29	0.00	0.00	0.00	0.00	0.00	0.00	1.00
25817	42	-449	-46	-0.01	-0.13	2.00	0.00	0.00	0.00	0.00	0.00	0.00	1.00
25858	44	-451	-12	0.25	-0.01	1.81	0.00	0.00	0.00	0.00	0.00	0.00	1.00
25898	16	-363	20	0.29	0.01	1.50	0.00	0.00	0.00	0.00	0.00	0.00	1.00
25938	10	-294	38	0.17	-0.01	1.10	0.00	0.00	0.00	0.00	0.00	0.00	1.00
25977	15	-243	58	0.10	-0.01	0.68	0.00	0.00	0.00	0.00	0.00	0.00	1.00
26018	14	-202	52	0.02	-0.03	0.30	0.00	0.00	0.00	0.00	0.00	0.00	1.00
26057	13	-167	38	0.02	-0.04	0.12	0.00	0.00	0.00	0.00	0.00	0.00	1.00
26096	1	-123	23	0.03	-0.04	-0.01	0.00	0.00	0.00	0.00	0.00	0.00	1.00
26137	-12	-77	14	-0.01	-0.03	-0.13	0.00	0.00	0.00	0.00	0.00	0.00	1.00
26178	-21	-53	10	-0.04	-0.06	-0.29	0.00	0.00	0.00	0.00	0.00	0.00	1.00
26219	-17	-35	4	-0.06	-0.06	-0.43	0.00	0.00	0.00	0.00	0.00	0.00	1.00
26261	-9	-27	3	-0.07	-0.06	-0.53	0.00	0.00	0.00	0.00	0.00	0.00	1.00
26302	2	-12	7	-0.05	-0.05	-0.61	0.00	0.00	0.00	0.00	0.00	0.00	1.00
26343	9	9	4	-0.05	-0.05	-0.63	0.00	0.00	0.00	0.00	0.00	0.00	1.00
26383	12	36	-7	-0.03	-0.07	-0.61	0.00	0.00	0.00	0.00	0.00	0.00	1.00
26424	9	62	-17	-0.03	-0.07	-0.56	0.00	0.00	0.00	0.00	0.00	0.00	1.00
26464	2	87	-17	0.01	-0.07	-0.45	0.00	0.00	0.00	0.00	0.00	0.00	1.00
26503	-9	114	-15	0.03	-0.06	-0.31	0.00	0.00	0.00	0.00	0.00	0.00	1.00
26544	-18	137	-7	0.03	-0.06	-0.12	0.00	0.00	0.00	0.00	0.00	0.00	1.00
26583	-21	150	0	0.03	-0.07	0.08	0.00	0.00	0.00	0.00	0.00	0.00	1.00
26624	-16	160	13	0.05	-0.07	0.31	0.00	0.00	0.00	0.00	0.00	0.00	1.00
26664	-8	175	20	0.12	-0.09	0.61	0.00	0.00	0.00	0.00	0.00	0.00	1.00
26703	12	220	27	0.27	-0.10	0.92	0.00	0.00	0.00	0.00	0.00	0.00	1.00
26743	33	293	19	0.29	-0.07	1.19	0.00	0.00	0.00	0.00	0.00	0.00	1.00
26782	28	350	-6	0.23	-0.02	1.53	0.00	0.00	0.00	0.00	0.00	0.00	1.00
26822	10	350	-41	0.15	-0.03	1.98	0.00	0.00	0.00	0.00	0.00	0.00	1.00
26862	-1	337	-59	0.21	-0.06	2.30	0.00	0.00	0.00	0.00	0.00	0.00	1.00
26902	-12	324	-47	0.19	-0.03	2.73	0.00	0.00	0.00	0.00	0.00	0.00	1.00
26943	-7	312	-6	0.33	-0.08	3.16	0.00	0.00	0.00	0.00	0.00	0.00	1.00
26983	3	327	18	0.32	-0.01	3.45	0.00	0.00	0.00	0.00	0.00	0.00	1.00
27022	9	345	18	0.29	-0.02	3.32	0.00	0.00	0.00	0.00	0.00	0.00	1.00
27062	10	352	18	0.23	0.05	3.15	0.00	0.00	0.00	0.00	0.00	0.00	1.00
27101	1	349	-5	0.30	0.04	2.83	0.00	0.00	0.00	0.00	0.00	0.00	1.00
27141	11	378	-1	0.40	0.00	2.44	0.00	0.00	0.00	0.00	0.00	0.00	1.00
27180	32	423	12	0.27	0.05	2.19	0.00	0.00	0.00	0.00	0.00	0.00	1.00
27218	28	385	22	0.04	0.04	1.57	0.00	0.00	0.00	0.00	0.00	0.00	1.00
27258	14	297	12	-0.11	0.04	0.93	0.00	0.00	0.00	0.00	0.00	0.00	1.00
27296	-7	205	6	-0.16	0.05	0.62	0.00	0.00	0.00	0.00	0.00	0.00	1.00
27337	-24	90	10	-0.33	0.02	0.55	0.00	0.00	0.00	0.00	0.00	0.00	1.00
27377	-37	-99	11	-0.56	0.00	0.53	0.00	0.00	0.00	0.00	0.00	0.00	1.00
27417	-57	-349	20	-0.68	0.08	0.75	0.00	0.00	0.00	0.00	0.00	0.00	1.00
27458	-89	-500	55	-0.65	0.06	1.36	0.00	0.00	0.00	0.00	0.00	0.00	1.00
27498	-95	-500	81	0.17	0.10	2.61	0.00	0.00	0.00	0.00	0.00	0.00	1.00
27538	-79	-500	90	0.97	0.25	4.00	0.00	0.00	0.00	0.00	0.00	0.00	1.00
27577	-107	-430	30	1.05	0.11	3.92	0.00	0.00	0.00	0.00	0.00	0.00	1.00
27617	-119	-227	-90	0.31	-0.07	3.14	0.00	0.00	0.00	0.00	0.00	0.00	1.00
27658	-71	-347	-164	-0.22	-0.15	2.78	0.00	0.00	0.00	0.00	0.00	0.00	1.00
27699	10	-466	-151	0.07	-0.16	2.23	0.00	0.00	0.00	0.00	0.00	0.00	1.00
27740	62	-452	-99	0.34	-0.07	1.97	0.00	0.00	0.00	0.00	0.00	0.00	1.00
27780	58	-350	-29	0.37	0.03	1.56	0.00	0.00	0.00	0.00	0.00	0.00	1.00
27820	40	-268	30	0.21	0.04	1.19	0.00	0.00	0.00	0.00	0.00	0.00	1.00
27860	32	-237	69	0.11	0.04	0.81	0.00	0.00	0.00	0.00	0.00	0.00	1.00
27899	25	-219	84	0.07	0.01	0.46	0.00	0.00	0.00	0.00	0.00	0.00	1.00
27937	18	-201	73	0.05	-0.01	0.23	0.00	0.00	0.00	0.00	0.00	0.00	1.00
27978	11	-171	47	0.05	-0.01	0.06	0.00	0.00	0.00	0.00	0.00	0.00	1.00
28017	2	-143	28	0.03	-0.03	-0.08	0.00	0.00	0.00	0.00	0.00	0.00	1.00
28058	-10	-100	3	-0.03	-0.05	-0.26	0.00	0.00	0.00	0.00	0.00	0.00	1.00
28100	-14	-82	-2	-0.08	-0.05	-0.41	0.00	0.00	0.00	0.00	0.00	0.00	1.00
28141	-17	-68	1	-0.09	-0.05	-0.52	0.00	0.00	0.00	0.00	0.00	0.00	1.00
28183	-9	-49	-2	-0.09	-0.06	-0.59	0.00	0.00	0.00	0.00	0.00	0.00	1.00
28224	1	-34	-3	-0.12	-0.07	-0.63	0.00	0.00	0.00	0.00	0.00	0.00	1.00
28266	12	-10	-6	-0.09	-0.06	-0.65	0.00	0.00	0.00	0.00	0.00	0.00	1.00
28306	11	27	-4	-0.08	-0.08	-0.63	0.00	0.00	0.00	0.00	0.00	0.00	1.00
28347	11	62	3	-0.05	-0.08	-0.55	0.00	0.00	0.00	0.00	0.00	0.00	1.00
28388	6	97	12	-0.02	-0.08	-0.45	0.00	0.00	0.00	0.00	0.00	0.00	1.00
28428	-6	134	9	0.02	-0.05	-0.27	0.00	0.00	0.00	0.00	0.00	0.00	1.00
28469	-17	158	1	0.02	-0.06	-0.13	0.00	0.00	0.00	0.00	0.00	0.00	1.00
28510	-14	178	-4	0.09	-0.07	0.06	0.00	0.00	0.00	0.00	0.00	0.00	1.00
28550	-7	216	-9	0.15	-0.06	0.26	0.00	0.00	0.00	0.00	0.00	0.00	1.00
28591	-6	260	-9	0.20	-0.06	0.50	0.00	0.00	0.00	0.00	0.00	0.00	1.00
28631	2	307	-1	0.23	-0.07	0.85	0.00	0.00	0.00	0.00	0.00	0.00	1.00
28670	15	342	5	0.23	-0.06	1.16	0.00	0.00	0.00	0.00	0.00	0.00	1.00
28710	17	345	-2	0.15	-0.01	1.52	0.00	0.00	0.00	0.00	0.00	0.00	1.00
28750	7	320	-8	0.16	-0.01	1.95	0.00	0.00	0.00	0.00	0.00	0.00	1.00
28790	-7	304	-13	0.25	-0.02	2.33	0.00	0.00	0.00	0.00	0.00	0.00	1.00
28830	-8	311	-21	0.29	-0.12	2.66	0.00	0.00	0.00	0.00	0.00	0.00	1.00
28871	0	310	-11	0.30	-0.06	3.08	0.00	0.00	0.00	0.00	0.00	0.00	1.00
28911	5	333	10	0.40	-0.07	3.34	0.00	0.00	0.00	0.00	0.00	0.00	1.00
28950	8	348	28	0.34	-0.06	3.41	0.00	0.00	0.00	0.00	0.00	0.00	1.00
28991	2	357	26	0.30	-0.03	3.14	0.00	0.00	0.00	0.00	0.00	0.00	1.00
29029	2	350	-14	0.26	-0.06	2.82	0.00	0.00	0.00	0.00	0.00	0.00	1.00
29069	19	354	-26	0.30	-0.04	2.48	0.00	0.00	0.00	0.00	0.00	0.00	1.00
29110	23	374	-7	0.32	0.02	2.11	0.00	0.00	0.00	0.00	0.00	0.00	1.00
29149	18	376	26	0.13	0.06	1.50	0.00	0.00	0.00	0.00	0.00	0.00	1.00
29189	0	305	38	-0.11	0.08	0.92	0.00	0.00	0.00	0.00	0.00	0.00	1.00
29228	-15	201	33	-0.21	0.03	0.63	0.00	0.00	0.00	0.00	0.00	0.00	1.00
29268	-23	67	22	-0.37	0.01	0.55	0.00	0.00	0.00	0.00	0.00	0.00	1.00
29309	-33	-133	15	-0.55	0.04	0.57	0.00	0.00	0.00	0.00	0.00	0.00	1.00
29348	-54	-376	14	-0.67	0.08	0.78	0.00	0.00	0.00	0.00	0.00	0.00	1.00
29389	-81	-499	18	-0.66	0.10	1.32	0.00	0.00	0.00	0.00	0.00	0.00	1.00
29429	-90	-500	12	0.11	0.05	2.41	0.00	0.00	0.00	0.00	0.00	0.00	1.00
29469	-49	-500	-4	1.07	0.14	4.00	0.00	0.00	0.00	0.00	0.00	0.00	1.00
29510	-34	-398	-32	1.17	0.10	3.48	0.00	0.00	0.00	0.00	0.00	0.00	1.00
29550	-38	-123	-31	0.42	-0.01	2.74	0.00	0.00	0.00	0.00	0.00	0.00	1.00
29592	-41	-223	-14	-0.35	-0.06	2.60	0.00	0.00	0.00	0.00	0.00	0.00	1.00
29633	-14	-374	1	-0.04	-0.13	1.91	0.00	0.00	0.00	0.00	0.00	0.00	1.00
29673	6	-438	-12	0.03	-0.10	1.81	0.00	0.00	0.00	0.00	0.00	0.00	1.00
29715	2	-423	-19	0.36	-0.02	1.50	0.00	0.00	0.00	0.00	0.00	0.00	1.00
29754	2	-319	-9	0.33	-0.02	1.19	0.00	0.00	0.00	0.00	0.00	0.00	1.00
29795	7	-247	7	0.20	-0.02	0.81	0.00	0.00	0.00	0.00	0.00	0.00	1.00
29835	10	-203	14	0.08	-0.02	0.45	0.00	0.00	0.00	0.00	0.00	0.00	1.00
29875	8	-189	3	0.00	-0.02	0.16	0.00	0.00	0.00	0.00	0.00	0.00	1.00
29916	7	-173	3	0.02	-0.03	-0.05	0.00	0.00	0.00	0.00	0.00	0.00	1.00
29956	7	-132	8	0.02	-0.05	-0.20	0.00	0.00	0.00	0.00	0.00	0.00	1.00
29996	9	-92	6	-0.03	-0.07	-0.31	0.00	0.00	0.00	0.00	0.00	0.00	1.00
30037	7	-61	9	-0.06	-0.09	-0.44	0.00	0.00	0.00	0.00	0.00	0.00	1.00
30077	6	-38	8	-0.10	-0.08	-0.47	0.00	0.00	0.00	0.00	0.00	0.00	1.00
30118	2	-22	5	-0.12	-0.08	-0.54	0.00	0.00	0.00	0.00	0.00	0.00	1.00
30158	2	-3	2	-0.11	-0.09	-0.52	0.00	0.00	0.00	0.00	0.00	0.00	1.00
30199	3	15	5	-0.09	-0.08	-0.48	0.00	0.00	0.00	0.00	0.00	0.00	1.00
30240	2	44	11	-0.06	-0.08	-0.47	0.00	0.00	0.00	0.00	0.00	0.00	1.00
30280	0	81	20	-0.02	-0.07	-0.35	0.00	0.00	0.00	0.00	0.00	0.00	1.00
30321	-5	122	30	0.04	-0.05	-0.19	0.00	0.00	0.00	0.00	0.00	0.00	1.00
30361	-6	168	37	0.11	-0.07	-0.04	0.00	0.00	0.00	0.00	0.00	0.00	1.00
30400	-4	219	39	0.13	-0.06	0.16	0.00	0.00	0.00	0.00	0.00	0.00	1.00
30441	-0	254	31	0.12	-0.06	0.46	0.00	0.00	0.00	0.00	0.00	0.00	1.00
30480	20	281	24	0.18	-0.09	0.78	0.00	0.00	0.00	0.00	0.00	0.00	1.00
30520	42	303	-1	0.16	-0.05	1.07	0.00	0.00	0.00	0.00	0.00	0.00	1.00
30560	38	310	-37	0.12	-0.03	1.42	0.00	0.00	0.00	0.00	0.00	0.00	1.00
30600	17	290	-67	0.15	-0.02	1.86	0.00	0.00	0.00	0.00	0.00	0.00	1.00
30639	6	286	-75	0.21	-0.07	2.17	0.00	0.00	0.00	0.00	0.00	0.00	1.00
30679	-9	292	-66	0.30	-0.08	2.71	0.00	0.00	0.00	0.00	0.00	0.00	1.00
30720	-20	322	-17	0.41	-0.12	3.01	0.00	0.00	0.00	0.00	0.00	0.00	1.00
30761	-6	372	41	0.39	-0.08	3.31	0.00	0.00	0.00	0.00	0.00	0.00	1.00
30800	-2	381	53	0.33	-0.07	3.41	0.00	0.00	0.00	0.00	0.00	0.00	1.00
30841	13	375	43	0.20	-0.07	3.25	0.00	0.00	0.00	0.00	0.00	0.00	1.00
30880	23	337	10	0.25	-0.06	2.88	0.00	0.00	0.00	0.00	0.00	0.00	1.00
30920	33	347	-7	0.31	-0.05	2.56	0.00	0.00	0.00	0.00	0.00	0.00	1.00
30959	55	371	-8	0.41	-0.01	2.47	0.00	0.00	0.00	0.00	0.00	0.00	1.00
30999	55	407	17	0.28	0.08	1.90	0.00	0.00	0.00	0.00	0.00	0.00	1.00
31038	38	358	26	-0.07	0.06	1.14	0.00	0.00	0.00	0.00	0.00	0.00	1.00
31077	13	252	20	-0.20	0.07	0.71	0.00	0.00	0.00	0.00	0.00	0.00	1.00
31117	-12	128	0	-0.26	0.02	0.57	0.00	0.00	0.00	0.00	0.00	0.00	1.00
31158	-23	-31	-6	-0.47	-0.00	0.53	0.00	0.00	0.00	0.00	0.00	0.00	1.00
31201	-42	-270	-9	-0.68	0.08	0.67	0.00	0.00	0.00	0.00	0.00	0.00	1.00
31243	-64	-500	25	-0.69	-0.02	1.22	0.00	0.00	0.00	0.00	0.00	0.00	1.00
31285	-60	-500	35	-0.10	-0.06	2.25	0.00	0.00	0.00	0.00	0.00	0.00	1.00
31327	-64	-500	21	1.01	0.23	4.00	0.00	0.00	0.00	0.00	0.00	0.00	1.00
31368	-72	-468	19	1.25	-0.05	3.96	0.00	0.00	0.00	0.00	0.00	0.00	1.00
31410	-49	-171	-14	0.58	-0.08	2.76	0.00	0.00	0.00	0.00	0.00	0.00	1.00
31451	-35	-211	-62	-0.31	-0.06	2.78	0.00	0.00	0.00	0.00	0.00	0.00	1.00
31493	-19	-382	-57	-0.11	-0.05	2.03	0.00	0.00	0.00	0.00	0.00	0.00	1.00
31535	3	-458	-45	0.11	-0.08	1.80	0.00	0.00	0.00	0.00	0.00	0.00	1.00
31575	12	-445	-32	0.38	-0.03	1.55	0.00	0.00	0.00	0.00	0.00	0.00	1.00
31616	14	-324	-2	0.32	0.03	1.23	0.00	0.00	0.00	0.00	0.00	0.00	1.00
31656	9	-251	26	0.18	0.01	0.73	0.00	0.00	0.00	0.00	0.00	0.00	1.00
31696	12	-216	39	0.07	-0.01	0.39	0.00	0.00	0.00	0.00	0.00	0.00	1.00
31736	11	-187	41	0.03	0.00	0.10	0.00	0.00	0.00	0.00	0.00	0.00	1.00
31774	5	-155	40	0.04	-0.02	-0.03	0.00	0.00	0.00	0.00	0.00	0.00	1.00
31814	4	-111	27	0.07	-0.04	-0.15	0.00	0.00	0.00	0.00	0.00	0.00	1.00
31853	-1	-56	7	0.04	-0.03	-0.31	0.00	0.00	0.00	0.00	0.00	0.00	1.00
31893	-7	-17	-14	-0.02	-0.05	-0.42	0.00	0.00	0.00	0.00	0.00	0.00	1.00
31933	-11	3	-25	-0.04	-0.06	-0.55	0.00	0.00	0.00	0.00	0.00	0.00	1.00
31974	-11	22	-25	-0.03	-0.05	-0.60	0.00	0.00	0.00	0.00	0.00	0.00	1.00
32014	-13	42	-14	-0.01	-0.02	-0.57	0.00	0.00	0.00	0.00	0.00	0.00	1.00
32054	-10	62	-1	-0.01	-0.04	-0.56	0.00	0.00	0.00	0.00	0.00	0.00	1.00
32095	3	77	18	-0.01	-0.03	-0.52	0.00	0.00	0.00	0.00	0.00	0.00	1.00
32134	13	87	26	-0.04	-0.04	-0.45	0.00	0.00	0.00	0.00	0.00	0.00	1.00
32174	11	91	25	-0.01	-0.04	-0.31	0.00	0.00	0.00	0.00	0.00	0.00	1.00
32215	11	109	18	0.03	-0.04	-0.11	0.00	0.00	0.00	0.00	0.00	0.00	1.00
32255	9	131	9	0.04	-0.05	0.07	0.00	0.00	0.00	0.00	0.00	0.00	1.00
32296	9	160	6	0.12	-0.06	0.28	0.00	0.00	0.00	0.00	0.00	0.00	1.00
32336	4	205	6	0.18	-0.07	0.57	0.00	0.00	0.00	0.00	0.00	0.00	1.00
32375	6	263	2	0.23	-0.08	0.88	0.00	0.00	0.00	0.00	0.00	0.00	1.00
32413	11	305	-10	0.18	-0.09	1.25	0.00	0.00	0.00	0.00	0.00	0.00	1.00
32452	9	321	-25	0.18	-0.04	1.54	0.00	0.00	0.00	0.00	0.00	0.00	1.00
32492	8	323	-32	0.18	-0.09	1.95	0.00	0.00	0.00	0.00	0.00	0.00	1.00
32531	8	311	-31	0.16	-0.07	2.22	0.00	0.00	0.00	0.00	0.00	0.00	1.00
32570	3	285	-27	0.19	-0.09	2.44	0.00	0.00	0.00	0.00	0.00	0.00	1.00
32609	-10	271	-18	0.21	-0.04	2.87	0.00	0.00	0.00	0.00	0.00	0.00	1.00
32648	-28	271	-8	0.43	-0.09	3.24	0.00	0.00	0.00	0.00	0.00	0.00	1.00
32688	-18	338	23	0.48	-0.13	3.23	0.00	0.00	0.00	0.00	0.00	0.00	1.00
32727	2	379	38	0.31	-0.10	3.09	0.00	0.00	0.00	0.00	0.00	0.00	1.00
32766	19	353	40	0.20	-0.04	2.82	0.00	0.00	0.00	0.00	0.00	0.00	1.00
32804	18	344	36	0.32	-0.01	2.51	0.00	0.00	0.00	0.00	0.00	0.00	1.00
32842	28	370	26	0.30	-0.02	2.28	0.00	0.00	0.00	0.00	0.00	0.00	1.00
32882	43	373	15	0.19	-0.01	1.85	0.00	0.00	0.00	0.00	0.00	0.00	1.00
32920	42	332	12	-0.03	0.03	1.29	0.00	0.00	0.00	0.00	0.00	0.00	1.00
32958	23	246	10	-0.14	0.05	0.81	0.00	0.00	0.00	0.00	0.00	0.00	1.00
32997	3	144	3	-0.26	0.03	0.64	0.00	0.00	0.00	0.00	0.00	0.00	1.00
33036	-10	32	5	-0.45	0.03	0.59	0.00	0.00	0.00	0.00	0.00	0.00	1.00
33074	-25	-164	18	-0.58	0.04	0.65	0.00	0.00	0.00	0.00	0.00	0.00	1.00
33114	-56	-391	46	-0.64	0.10	0.96	0.00	0.00	0.00	0.00	0.00	0.00	1.00
33154	-97	-499	106	-0.54	0.13	1.59	0.00	0.00	0.00	0.00	0.00	0.00	1.00
33196	-135	-500	102	0.25	0.15	2.96	0.00	0.00	0.00	0.00	0.00	0.00	1.00
33234	-133	-500	51	1.05	0.02	4.00	0.00	0.00	0.00	0.00	0.00	0.00	1.00
33275	-85	-353	-17	0.80	0.02	3.69	0.00	0.00	0.00	0.00	0.00	0.00	1.00
33315	-91	-235	-82	0.25	0.03	3.00	0.00	0.00	0.00	0.00	0.00	0.00	1.00
33355	-62	-340	-94	-0.13	-0.10	2.70	0.00	0.00	0.00	0.00	0.00	0.00	1.00
33397	-7	-430	-76	0.11	-0.12	2.15	0.00	0.00	0.00	0.00	0.00	0.00	1.00
33437	21	-430	-66	0.24	-0.05	1.99	0.00	0.00	0.00	0.00	0.00	0.00	1.00
33478	15	-379	-45	0.32	-0.03	1.64	0.00	0.00	0.00	0.00	0.00	0.00	1.00
33518	16	-315	-12	0.20	-0.02	1.31	0.00	0.00	0.00	0.00	0.00	0.00	1.00
33559	22	-277	19	0.13	-0.03	0.81	0.00	0.00	0.00	0.00	0.00	0.00	1.00
33598	31	-247	27	0.04	-0.04	0.47	0.00	0.00	0.00	0.00	0.00	0.00	1.00
33638	34	-218	27	0.05	-0.02	0.22	0.00	0.00	0.00	0.00	0.00	0.00	1.00
33677	27	-173	28	0.06	-0.01	0.10	0.00	0.00	0.00	0.00	0.00	0.00	1.00
33719	17	-120	25	-0.03	-0.03	-0.14	0.00	0.00	0.00	0.00	0.00	0.00	1.00
33760	10	-81	23	-0.05	-0.06	-0.30	0.00	0.00	0.00	0.00	0.00	0.00	1.00
33801	11	-54	16	-0.14	-0.06	-0.45	0.00	0.00	0.00	0.00	0.00	0.00	1.00
33842	6	-49	14	-0.13	-0.09	-0.56	0.00	0.00	0.00	0.00	0.00	0.00	1.00
33882	4	-36	14	-0.17	-0.09	-0.64	0.00	0.00	0.00	0.00	0.00	0.00	1.00
33924	3	-30	1	-0.16	-0.11	-0.65	0.00	0.00	0.00	0.00	0.00	0.00	1.00
33965	4	-15	-5	-0.15	-0.09	-0.67	0.00	0.00	0.00	0.00	0.00	0.00	1.00
34007	2	28	-3	-0.12	-0.10	-0.65	0.00	0.00	0.00	0.00	0.00	0.00	1.00
34047	-6	73	2	-0.08	-0.08	-0.57	0.00	0.00	0.00	0.00	0.00	0.00	1.00
34087	-13	110	7	-0.05	-0.08	-0.44	0.00	0.00	0.00	0.00	0.00	0.00	1.00
34128	-17	140	7	-0.01	-0.05	-0.32	0.00	0.00	0.00	0.00	0.00	0.00	1.00
34169	-23	159	-1	0.02	-0.05	-0.17	0.00	0.00	0.00	0.00	0.00	0.00	1.00
34210	-33	183	-14	0.08	-0.02	0.01	0.00	0.00	0.00	0.00	0.00	0.00	1.00
34251	-38	214	-17	0.13	-0.03	0.29	0.00	0.00	0.00	0.00	0.00	0.00	1.00
34291	-31	252	-5	0.20	-0.04	0.57	0.00	0.00	0.00	0.00	0.00	0.00	1.00
34332	-12	305	3	0.24	-0.09	0.86	0.00	0.00	0.00	0.00	0.00	0.00	1.00
34372	16	349	6	0.23	-0.09	1.14	0.00	0.00	0.00	0.00	0.00	0.00	1.00
34412	23	359	11	0.14	-0.01	1.62	0.00	0.00	0.00	0.00	0.00	0.00	1.00
34451	7	338	14	0.20	-0.05	1.97	0.00	0.00	0.00	0.00	0.00	0.00	1.00
34490	-15	330	8	0.18	-0.00	2.38	0.00	0.00	0.00	0.00	0.00	0.00	1.00
34530	-37	314	-12	0.27	-0.16	2.73	0.00	0.00	0.00	0.00	0.00	0.00	1.00
34571	-13	314	-7	0.25	-0.20	3.09	0.00	0.00	0.00	0.00	0.00	0.00	1.00
34612	26	316	19	0.37	-0.16	3.42	0.00	0.00	0.00	0.00	0.00	0.00	1.00
34651	39	337	43	0.35	-0.02	3.57	0.00	0.00	0.00	0.00	0.00	0.00	1.00
34690	16	359	16	0.28	-0.02	3.13	0.00	0.00	0.00	0.00	0.00	0.00	1.00
34730	2	374	-6	0.35	0.00	2.84	0.00	0.00	0.00	0.00	0.00	0.00	1.00
34769	1	403	-19	0.40	-0.06	2.54	0.00	0.00	0.00	0.00	0.00	0.00	1.00
34808	22	427	6	0.21	-0.04	2.25	0.00	0.00	0.00	0.00	0.00	0.00	1.00
34848	38	387	49	0.12	-0.03	1.49	0.00	0.00	0.00	0.00	0.00	0.00	1.00
34887	54	316	60	-0.12	0.02	0.93	0.00	0.00	0.00	0.00	0.00	0.00	1.00
34928	27	188	27	-0.28	0.10	0.69	0.00	0.00	0.00	0.00	0.00	0.00	1.00
34967	-16	32	-16	-0.37	0.07	0.60	0.00	0.00	0.00	0.00	0.00	0.00	1.00
35007	-41	-146	-26	-0.49	0.04	0.67	0.00	0.00	0.00	0.00	0.00	0.00	1.00
35049	-66	-389	1	-0.68	0.10	0.92	0.00	0.00	0.00	0.00	0.00	0.00	1.00
35088	-85	-499	50	-0.63	-0.00	1.47	0.00	0.00	0.00	0.00	0.00	0.00	1.00
35129	-100	-500	48	0.10	0.01	2.70	0.00	0.00	0.00	0.00	0.00	0.00	1.00
35169	-78	-500	11	1.14	0.02	4.00	0.00	0.00	0.00	0.00	0.00	0.00	1.00
35209	-40	-400	-32	1.05	-0.03	3.62	0.00	0.00	0.00	0.00	0.00	0.00	1.00
35251	-53	-178	-48	0.34	0.03	2.78	0.00	0.00	0.00	0.00	0.00	0.00	1.00
35291	-64	-285	-48	-0.32	-0.09	2.65	0.00	0.00	0.00	0.00	0.00	0.00	1.00
35333	-16	-409	-24	0.04	-0.14	1.99	0.00	0.00	0.00	0.00	0.00	0.00	1.00
35373	19	-421	-26	0.18	-0.08	1.80	0.00	0.00	0.00	0.00	0.00	0.00	1.00
35413	22	-366	-30	0.34	-0.03	1.48	0.00	0.00	0.00	0.00	0.00	0.00	1.00
35454	9	-282	-24	0.25	-0.01	1.12	0.00	0.00	0.00	0.00	0.00	0.00	1.00
35493	-1	-230	-4	0.14	-0.03	0.73	0.00	0.00	0.00	0.00	0.00	0.00	1.00
35535	1	-205	14	0.04	-0.05	0.34	0.00	0.00	0.00	0.00	0.00	0.00	1.00
35575	7	-189	25	0.02	-0.06	0.15	0.00	0.00	0.00	0.00	0.00	0.00	1.00
35614	13	-171	26	0.00	-0.04	-0.05	0.00	0.00	0.00	0.00	0.00	0.00	1.00
35655	11	-143	20	0.03	-0.01	-0.17	0.00	0.00	0.00	0.00	0.00	0.00	1.00
35696	7	-107	12	-0.03	-0.01	-0.33	0.00	0.00	0.00	0.00	0.00	0.00	1.00
35737	18	-75	3	-0.07	-0.05	-0.52	0.00	0.00	0.00	0.00	0.00	0.00	1.00
35779	20	-50	7	-0.08	-0.05	-0.59	0.00	0.00	0.00	0.00	0.00	0.00	1.00
35819	18	-24	11	-0.09	-0.07	-0.64	0.00	0.00	0.00	0.00	0.00	0.00	1.00
35860	13	-0	14	-0.10	-0.07	-0.61	0.00	0.00	0.00	0.00	0.00	0.00	1.00
35901	7	18	12	-0.10	-0.08	-0.61	0.00	0.00	0.00	0.00	0.00	0.00	1.00
35941	3	45	8	-0.06	-0.07	-0.53	0.00	0.00	0.00	0.00	0.00	0.00	1.00
35982	-4	74	6	-0.04	-0.07	-0.44	0.00	0.00	0.00	0.00	0.00	0.00	1.00
36022	-10	106	-1	0.01	-0.05	-0.32	0.00	0.00	0.00	0.00	0.00	0.00	1.00
36064	-13	139	-6	0.04	-0.07	-0.20	0.00	0.00	0.00	0.00	0.00	0.00	1.00
36105	-12	176	-6	0.11	-0.06	0.00	0.00	0.00	0.00	0.00	0.00	0.00	1.00
36145	-15	229	-1	0.20	-0.08	0.22	0.00	0.00	0.00	0.00	0.00	0.00	1.00
36186	-5	290	3	0.22	-0.15	0.63	0.00	0.00	0.00	0.00	0.00	0.00	1.00
36226	9	331	3	0.18	-0.10	0.95	0.00	0.00	0.00	0.00	0.00	0.00	1.00
36266	17	342	4	0.09	-0.09	1.15	0.00	0.00	0.00	0.00	0.00	0.00	1.00
36305	20	309	3	0.02	-0.13	1.57	0.00	0.00	0.00	0.00	0.00	0.00	1.00
36345	13	272	6	0.19	-0.11	1.97	0.00	0.00	0.00	0.00	0.00	0.00	1.00
36384	16	286	12	0.21	-0.15	2.26	0.00	0.00	0.00	0.00	0.00	0.00	1.00
36423	27	283	4	0.26	-0.14	2.67	0.00	0.00	0.00	0.00	0.00	0.00	1.00
36462	47	300	-6	0.39	-0.05	3.06	0.00	0.00	0.00	0.00	0.00	0.00	1.00
36502	27	347	-27	0.49	0.01	3.33	0.00	0.00	0.00	0.00	0.00	0.00	1.00
36541	8	415	-27	0.46	-0.02	3.37	0.00	0.00	0.00	0.00	0.00	0.00	1.00
36581	-3	399	-12	0.09	0.01	3.24	0.00	0.00	0.00	0.00	0.00	0.00	1.00
36620	10	323	2	0.20	-0.05	2.89	0.00	0.00	0.00	0.00	0.00	0.00	1.00
36660	30	317	-7	0.27	0.00	2.51	0.00	0.00	0.00	0.00	0.00	0.00	1.00
36701	28	335	-10	0.35	0.05	2.11	0.00	0.00	0.00	0.00	0.00	0.00	1.00
36740	24	359	3	0.19	0.05	1.57	0.00	0.00	0.00	0.00	0.00	0.00	1.00
36780	27	313	12	-0.04	0.04	1.08	0.00	0.00	0.00	0.00	0.00	0.00	1.00
36818	19	228	20	-0.13	0.04	0.74	0.00	0.00	0.00	0.00	0.00	0.00	1.00
36858	7	127	16	-0.24	0.04	0.59	0.00	0.00	0.00	0.00	0.00	0.00	1.00
36897	-12	-28	12	-0.44	0.04	0.59	0.00	0.00	0.00	0.00	0.00	0.00	1.00
36936	-27	-189	18	-0.65	0.11	0.71	0.00	0.00	0.00	0.00	0.00	0.00	1.00
36975	-60	-464	68	-0.75	0.08	1.00	0.00	0.00	0.00	0.00	0.00	0.00	1.00
37015	-88	-500	152	-0.37	0.14	1.83	0.00	0.00	0.00	0.00	0.00	0.00	1.00
37054	-124	-500	153	0.60	0.35	3.25	0.00	0.00	0.00	0.00	0.00	0.00	1.00
37093	-135	-500	98	1.04	0.28	3.99	0.00	0.00	0.00	0.00	0.00	0.00	1.00
37132	-101	-270	-48	0.72	0.12	3.65	0.00	0.00	0.00	0.00	0.00	0.00	1.00
37171	-113	-238	-164	0.02	0.08	3.11	0.00	0.00	0.00	0.00	0.00	0.00	1.00
37211	-55	-367	-130	0.02	-0.08	2.60	0.00	0.00	0.00	0.00	0.00	0.00	1.00
37251	16	-406	-56	0.13	-0.09	2.13	0.00	0.00	0.00	0.00	0.00	0.00	1.00
37290	41	-412	-7	0.20	-0.02	1.93	0.00	0.00	0.00	0.00	0.00	0.00	1.00
37330	38	-384	19	0.31	0.03	1.66	0.00	0.00	0.00	0.00	0.00	0.00	1.00
37368	17	-321	37	0.25	0.04	1.37	0.00	0.00	0.00	0.00	0.00	0.00	1.00
37407	-1	-275	47	0.14	0.01	0.97	0.00	0.00	0.00	0.00	0.00	0.00	1.00
37446	-6	-250	46	0.03	-0.03	0.58	0.00	0.00	0.00	0.00	0.00	0.00	1.00
37486	-4	-239	36	0.00	-0.04	0.26	0.00	0.00	0.00	0.00	0.00	0.00	1.00
37525	-3	-212	30	0.03	-0.04	0.09	0.00	0.00	0.00	0.00	0.00	0.00	1.00
37564	0	-164	25	0.03	-0.02	-0.05	0.00	0.00	0.00	0.00	0.00	0.00	1.00
37604	-5	-118	16	-0.07	-0.04	-0.28	0.00	0.00	0.00	0.00	0.00	0.00	1.00
37645	6	-94	15	-0.15	-0.08	-0.44	0.00	0.00	0.00	0.00	0.00	0.00	1.00
37685	15	-86	24	-0.18	-0.08	-0.52	0.00	0.00	0.00	0.00	0.00	0.00	1.00
37725	17	-72	22	-0.22	-0.07	-0.61	0.00	0.00	0.00	0.00	0.00	0.00	1.00
37765	18	-60	20	-0.20	-0.09	-0.65	0.00	0.00	0.00	0.00	0.00	0.00	1.00
37806	19	-30	12	-0.21	-0.10	-0.67	0.00	0.00	0.00	0.00	0.00	0.00	1.00
37847	16	2	-5	-0.20	-0.06	-0.64	0.00	0.00	0.00	0.00	0.00	0.00	1.00
37889	7	35	-19	-0.20	-0.12	-0.61	0.00	0.00	0.00	0.00	0.00	0.00	1.00
37930	4	74	-18	-0.15	-0.10	-0.53	0.00	0.00	0.00	0.00	0.00	0.00	1.00
37971	-6	109	-8	-0.09	-0.08	-0.42	0.00	0.00	0.00	0.00	0.00	0.00	1.00
38013	-13	143	-5	-0.05	-0.08	-0.29	0.00	0.00	0.00	0.00	0.00	0.00	1.00
38055	-15	169	-5	0.04	-0.08	-0.10	0.00	0.00	0.00	0.00	0.00	0.00	1.00
38096	-20	222	-2	0.13	-0.06	0.07	0.00	0.00	0.00	0.00	0.00	0.00	1.00
38137	-19	272	-14	0.16	-0.09	0.26	0.00	0.00	0.00	0.00	0.00	0.00	1.00
38177	2	313	-28	0.18	-0.13	0.56	0.00	0.00	0.00	0.00	0.00	0.00	1.00
38218	34	341	-32	0.19	-0.12	0.92	0.00	0.00	0.00	0.00	0.00	0.00	1.00
38258	47	351	-38	0.16	-0.07	1.25	0.00	0.00	0.00	0.00	0.00	0.00	1.00
38299	21	347	-42	0.27	-0.04	1.72	0.00	0.00	0.00	0.00	0.00	0.00	1.00
38339	-12	353	-31	0.22	-0.06	2.11	0.00	0.00	0.00	0.00	0.00	0.00	1.00
38379	-40	320	-16	0.17	-0.08	2.43	0.00	0.00	0.00	0.00	0.00	0.00	1.00
38419	-36	279	-3	0.30	-0.20	2.88	0.00	0.00	0.00	0.00	0.00	0.00	1.00
38788	41	274	56	-0.09	0.10	0.90	0.00	0.00	0.00	0.00	0.00	0.00	1.00
38830	15	171	51	-0.22	0.09	0.67	0.00	0.00	0.00	0.00	0.00	0.00	1.00
38868	-15	31	37	-0.36	0.10	0.62	0.00	0.00	0.00	0.00	0.00	0.00	1.00
38909	-50	-157	36	-0.52	0.08	0.70	0.00	0.00	0.00	0.00	0.00	0.00	1.00
38950	-83	-422	46	-0.70	0.10	0.98	0.00	0.00	0.00	0.00	0.00	0.00	1.00
38990	-107	-500	81	-0.40	0.02	1.55	0.00	0.00	0.00	0.00	0.00	0.00	1.00
39031	-107	-500	88	0.18	0.13	3.26	0.00	0.00	0.00	0.00	0.00	0.00	1.00
39071	-93	-500	56	1.23	0.13	3.97	0.00	0.00	0.00	0.00	0.00	0.00	1.00
39111	-107	-340	-35	1.00	0.03	3.36	0.00	0.00	0.00	0.00	0.00	0.00	1.00
39151	-127	-194	-107	0.26	-0.09	2.76	0.00	0.00	0.00	0.00	0.00	0.00	1.00
39191	-73	-316	-112	-0.11	-0.23	2.22	0.00	0.00	0.00	0.00	0.00	0.00	1.00
39232	2	-405	-80	0.15	-0.23	1.91	0.00	0.00	0.00	0.00	0.00	0.00	1.00
39273	37	-398	-43	0.32	-0.12	1.80	0.00	0.00	0.00	0.00	0.00	0.00	1.00
39314	38	-322	-8	0.37	-0.04	1.37	0.00	0.00	0.00	0.00	0.00	0.00	1.00
39354	20	-248	17	0.23	-0.00	1.01	0.00	0.00	0.00	0.00	0.00	0.00	1.00
39393	9	-197	35	0.19	-0.02	0.61	0.00	0.00	0.00	0.00	0.00	0.00	1.00
39434	-1	-152	43	0.10	-0.03	0.33	0.00	0.00	0.00	0.00	0.00	0.00	1.00
39474	-8	-124	33	0.06	-0.00	0.06	0.00	0.00	0.00	0.00	0.00	0.00	1.00
39515	-16	-95	26	0.06	-0.04	-0.09	0.00	0.00	0.00	0.00	0.00	0.00	1.00
39556	-15	-63	7	0.04	-0.03	-0.26	0.00	0.00	0.00	0.00	0.00	0.00	1.00
39596	-20	-37	-12	0.02	-0.02	-0.34	0.00	0.00	0.00	0.00	0.00	0.00	1.00
39638	-24	-18	-22	-0.00	-0.03	-0.43	0.00	0.00	0.00	0.00	0.00	0.00	1.00
39679	-18	-9	-25	-0.05	-0.05	-0.46	0.00	0.00	0.00	0.00	0.00	0.00	1.00
39721	-8	-7	-15	-0.04	-0.04	-0.44	0.00	0.00	0.00	0.00	0.00	0.00	1.00
39763	2	2	-1	-0.03	-0.03	-0.41	0.00	0.00	0.00	0.00	0.00	0.00	1.00
39804	11	21	7	-0.01	-0.04	-0.33	0.00	0.00	0.00	0.00	0.00	0.00	1.00
39844	16	47	12	0.01	-0.03	-0.22	0.00	0.00	0.00	0.00	0.00	0.00	1.00
39884	15	78	19	0.05	-0.05	-0.06	0.00	0.00	0.00	0.00	0.00	0.00	1.00
39924	15	116	24	0.11	-0.07	0.11	0.00	0.00	0.00	0.00	0.00	0.00	1.00
39964	9	166	30	0.17	-0.05	0.32	0.00	0.00	0.00	0.00	0.00	0.00	1.00
40004	2	225	37	0.22	-0.07	0.59	0.00	0.00	0.00	0.00	0.00	0.00	1.00
40043	6	293	38	0.27	-0.07	0.91	0.00	0.00	0.00	0.00	0.00	0.00	1.00
40082	15	341	28	0.21	-0.11	1.23	0.00	0.00	0.00	0.00	0.00	0.00	1.00
40121	22	351	0	0.19	-0.09	1.75	0.00	0.00	0.00	0.00	0.00	0.00	1.00
40161	15	347	-21	0.27	-0.09	2.03	0.00	0.00	0.00	0.00	0.00	0.00	1.00
40201	5	350	-43	0.15	-0.13	2.25	0.00	0.00	0.00	0.00	0.00	0.00	1.00
40241	-1	282	-52	0.10	-0.15	2.78	0.00	0.00	0.00	0.00	0.00	0.00	1.00
40281	-2	258	-30	0.36	-0.13	3.20	0.00	0.00	0.00	0.00	0.00	0.00	1.00
40322	-5	296	5	0.59	-0.05	3.52	0.00	0.00	0.00	0.00	0.00	0.00	1.00
40362	5	392	45	0.54	-0.05	3.34	0.00	0.00	0.00	0.00	0.00	0.00	1.00
40401	30	422	60	0.35	0.03	3.13	0.00	0.00	0.00	0.00	0.00	0.00	1.00
40440	23	411	21	0.42	-0.02	2.98	0.00	0.00	0.00	0.00	0.00	0.00	1.00
40480	43	443	-6	0.47	-0.04	2.68	0.00	0.00	0.00	0.00	0.00	0.00	1.00
40519	56	468	8	0.29	0.08	2.06	0.00	0.00	0.00	0.00	0.00	0.00	1.00
40558	28	415	8	-0.03	0.09	1.23	0.00	0.00	0.00	0.00	0.00	0.00	1.00
40596	-4	322	1	-0.11	0.04	0.69	0.00	0.00	0.00	0.00	0.00	0.00	1.00
40635	-17	248	-7	-0.24	-0.00	0.48	0.00	0.00	0.00	0.00	0.00	0.00	1.00
40676	-31	78	-14	-0.56	0.01	0.42	0.00	0.00	0.00	0.00	0.00	0.00	1.00
40715	-42	-202	-9	-0.66	0.00	0.35	0.00	0.00	0.00	0.00	0.00	0.00	1.00
40755	-54	-500	17	-0.92	0.07	0.61	0.00	0.00	0.00	0.00	0.00	0.00	1.00
40794	-91	-500	48	-0.76	-0.01	1.19	0.00	0.00	0.00	0.00	0.00	0.00	1.00
40834	-123	-500	50	0.39	-0.04	2.69	0.00	0.00	0.00	0.00	0.00	0.00	1.00
40874	-66	-500	-3	1.36	-0.01	3.99	0.00	0.00	0.00	0.00	0.00	0.00	1.00
40913	-56	-367	-66	1.33	0.04	3.11	0.00	0.00	0.00	0.00	0.00	0.00	1.00
40953	-66	-77	-51	0.40	-0.11	2.48	0.00	0.00	0.00	0.00	0.00	0.00	1.00
40992	-31	-201	-48	-0.33	-0.17	2.41	0.00	0.00	0.00	0.00	0.00	0.00	1.00
41032	16	-328	-16	-0.04	-0.10	1.69	0.00	0.00	0.00	0.00	0.00	0.00	1.00
41072	17	-389	-9	0.05	-0.05	1.55	0.00	0.00	0.00	0.00	0.00	0.00	1.00
41112	4	-370	-2	0.29	-0.03	1.27	0.00	0.00	0.00	0.00	0.00	0.00	1.00
41151	-11	-289	11	0.32	-0.01	0.96	0.00	0.00	0.00	0.00	0.00	0.00	1.00
41191	-14	-207	22	0.25	-0.04	0.66	0.00	0.00	0.00	0.00	0.00	0.00	1.00
41230	-6	-156	28	0.12	-0.03	0.35	0.00	0.00	0.00	0.00	0.00	0.00	1.00
41269	-5	-135	32	0.08	-0.00	0.07	0.00	0.00	0.00	0.00	0.00	0.00	1.00
41309	-7	-110	29	0.07	-0.01	-0.08	0.00	0.00	0.00	0.00	0.00	0.00	1.00
41350	-10	-87	25	0.08	-0.03	-0.19	0.00	0.00	0.00	0.00	0.00	0.00	1.00
41392	-14	-56	15	0.04	-0.02	-0.31	0.00	0.00	0.00	0.00	0.00	0.00	1.00
41433	-17	-43	3	0.00	-0.02	-0.42	0.00	0.00	0.00	0.00	0.00	0.00	1.00
41474	-18	-42	-12	-0.02	-0.02	-0.49	0.00	0.00	0.00	0.00	0.00	0.00	1.00
41515	-11	-37	-20	-0.04	-0.02	-0.51	0.00	0.00	0.00	0.00	0.00	0.00	1.00
41557	-3	-31	-23	-0.02	-0.02	-0.49	0.00	0.00	0.00	0.00	0.00	0.00	1.00
41599	4	-11	-18	-0.00	-0.00	-0.45	0.00	0.00	0.00	0.00	0.00	0.00	1.00
41640	7	18	-11	0.02	-0.05	-0.35	0.00	0.00	0.00	0.00	0.00	0.00	1.00
41681	12	53	-6	0.03	-0.03	-0.22	0.00	0.00	0.00	0.00	0.00	0.00	1.00
41721	9	84	-2	0.04	-0.05	-0.06	0.00	0.00	0.00	0.00	0.00	0.00	1.00
41760	5	112	-0	0.08	-0.05	0.15	0.00	0.00	0.00	0.00	0.00	0.00	1.00
41800	2	153	4	0.16	-0.06	0.36	0.00	0.00	0.00	0.00	0.00	0.00	1.00
41840	6	218	16	0.27	-0.09	0.52	0.00	0.00	0.00	0.00	0.00	0.00	1.00
41880	19	303	26	0.31	-0.11	0.85	0.00	0.00	0.00	0.00	0.00	0.00	1.00
41920	26	374	24	0.30	-0.09	1.19	0.00	0.00	0.00	0.00	0.00	0.00	1.00
41958	27	394	-2	0.13	-0.10	1.68	0.00	0.00	0.00	0.00	0.00	0.00	1.00
41998	19	351	-30	0.10	-0.11	2.05	0.00	0.00	0.00	0.00	0.00	0.00	1.00
42038	3	303	-41	0.13	-0.10	2.57	0.00	0.00	0.00	0.00	0.00	0.00	1.00
42078	-10	275	-28	0.37	-0.16	3.12	0.00	0.00	0.00	0.00	0.00	0.00	1.00
42119	-1	339	1	0.56	-0.11	3.47	0.00	0.00	0.00	0.00	0.00	0.00	1.00
42159	3	411	-2	0.40	-0.02	3.56	0.00	0.00	0.00	0.00	0.00	0.00	1.00
42199	-6	390	-21	0.24	0.02	3.53	0.00	0.00	0.00	0.00	0.00	0.00	1.00
42239	-19	364	-20	0.23	0.01	3.08	0.00	0.00	0.00	0.00	0.00	0.00	1.00
42278	-4	386	15	0.44	-0.04	2.82	0.00	0.00	0.00	0.00	0.00	0.00	1.00
42318	28	473	77	0.53	0.05	2.59	0.00	0.00	0.00	0.00	0.00	0.00	1.00
42357	45	488	121	0.12	0.09	1.99	0.00	0.00	0.00	0.00	0.00	0.00	1.00
42397	41	385	94	-0.16	0.09	1.14	0.00	0.00	0.00	0.00	0.00	0.00	1.00
42436	24	287	5	-0.06	0.01	0.62	0.00	0.00	0.00	0.00	0.00	0.00	1.00
42475	15	216	-53	-0.22	0.01	0.49	0.00	0.00	0.00	0.00	0.00	0.00	1.00
42515	-4	33	-46	-0.59	0.09	0.49	0.00	0.00	0.00	0.00	0.00	0.00	1.00
42555	-37	-235	-0	-0.69	0.07	0.48	0.00	0.00	0.00	0.00	0.00	0.00	1.00
42596	-64	-500	50	-0.91	0.06	0.66	0.00	0.00	0.00	0.00	0.00	0.00	1.00
42636	-118	-500	50	-0.66	0.10	1.14	0.00	0.00	0.00	0.00	0.00	0.00	1.00
42677	-140	-500	50	0.21	0.04	2.97	0.00	0.00	0.00	0.00	0.00	0.00	1.00
42717	-80	-500	8	1.84	0.21	3.99	0.00	0.00	0.00	0.00	0.00	0.00	1.00
42757	-80	-251	-65	1.32	-0.14	2.59	0.00	0.00	0.00	0.00	0.00	0.00	1.00
42799	-70	-10	-66	0.17	-0.15	2.54	0.00	0.00	0.00	0.00	0.00	0.00	1.00
42839	-23	-218	-68	-0.23	-0.16	2.36	0.00	0.00	0.00	0.00	0.00	0.00	1.00
42881	18	-341	-27	-0.06	-0.15	1.72	0.00	0.00	0.00	0.00	0.00	0.00	1.00
42922	26	-415	-30	0.12	-0.12	1.55	0.00	0.00	0.00	0.00	0.00	0.00	1.00
42962	17	-402	-20	0.31	-0.02	1.36	0.00	0.00	0.00	0.00	0.00	0.00	1.00
43003	1	-321	-3	0.28	-0.02	0.92	0.00	0.00	0.00	0.00	0.00	0.00	1.00
43043	9	-246	8	0.23	-0.03	0.65	0.00	0.00	0.00	0.00	0.00	0.00	1.00
43082	17	-191	10	0.12	0.00	0.33	0.00	0.00	0.00	0.00	0.00	0.00	1.00
43121	13	-165	12	0.04	0.00	0.11	0.00	0.00	0.00	0.00	0.00	0.00	1.00
43161	8	-140	23	0.08	-0.01	-0.05	0.00	0.00	0.00	0.00	0.00	0.00	1.00
43201	-2	-101	32	0.05	-0.00	-0.17	0.00	0.00	0.00	0.00	0.00	0.00	1.00
43242	-13	-69	29	0.03	-0.01	-0.32	0.00	0.00	0.00	0.00	0.00	0.00	1.00
43283	-20	-37	21	-0.00	-0.03	-0.46	0.00	0.00	0.00	0.00	0.00	0.00	1.00
43325	-15	-18	14	-0.04	-0.03	-0.55	0.00	0.00	0.00	0.00	0.00	0.00	1.00
43366	-10	-12	0	-0.07	-0.02	-0.64	0.00	0.00	0.00	0.00	0.00	0.00	1.00
43406	-3	-8	-15	-0.05	-0.02	-0.64	0.00	0.00	0.00	0.00	0.00	0.00	1.00
43448	2	15	-15	-0.02	-0.02	-0.61	0.00	0.00	0.00	0.00	0.00	0.00	1.00
43489	-2	40	-8	-0.01	-0.03	-0.55	0.00	0.00	0.00	0.00	0.00	0.00	1.00
43530	-8	70	2	-0.00	-0.03	-0.43	0.00	0.00	0.00	0.00	0.00	0.00	1.00
43571	-8	92	13	-0.00	-0.05	-0.29	0.00	0.00	0.00	0.00	0.00	0.00	1.00
43612	-8	112	24	0.02	-0.05	-0.14	0.00	0.00	0.00	0.00	0.00	0.00	1.00
43653	-5	135	32	0.06	-0.08	0.07	0.00	0.00	0.00	0.00	0.00	0.00	1.00
43693	5	163	35	0.08	-0.10	0.29	0.00	0.00	0.00	0.00	0.00	0.00	1.00
43732	13	190	29	0.15	-0.09	0.57	0.00	0.00	0.00	0.00	0.00	0.00	1.00
43771	18	244	29	0.26	-0.11	0.85	0.00	0.00	0.00	0.00	0.00	0.00	1.00
43810	19	313	15	0.27	-0.10	1.07	0.00	0.00	0.00	0.00	0.00	0.00	1.00
43850	19	359	1	0.20	-0.16	1.40	0.00	0.00	0.00	0.00	0.00	0.00	1.00
43890	24	364	-10	0.15	-0.15	1.64	0.00	0.00	0.00	0.00	0.00	0.00	1.00
43930	24	347	-30	0.08	-0.12	1.93	0.00	0.00	0.00	0.00	0.00	0.00	1.00
43970	6	293	-43	0.09	-0.11	2.24	0.00	0.00	0.00	0.00	0.00	0.00	1.00
44010	-6	260	-45	0.21	-0.15	2.53	0.00	0.00	0.00	0.00	0.00	0.00	1.00
44051	-17	239	-33	0.25	-0.10	3.16	0.00	0.00	0.00	0.00	0.00	0.00	1.00
44091	-35	212	-28	0.41	-0.07	3.51	0.00	0.00	0.00	0.00	0.00	0.00	1.00
44131	-30	284	2	0.49	-0.06	3.20	0.00	0.00	0.00	0.00	0.00	0.00	1.00
44170	-13	315	42	0.19	-0.04	3.24	0.00	0.00	0.00	0.00	0.00	0.00	1.00
44210	6	303	53	0.27	-0.00	2.80	0.00	0.00	0.00	0.00	0.00	0.00	1.00
44250	-6	303	29	0.08	0.06	2.49	0.00	0.00	0.00	0.00	0.00	0.00	1.00
44289	-17	294	1	0.13	-0.04	1.85	0.00	0.00	0.00	0.00	0.00	0.00	1.00
44330	-4	277	-11	-0.05	-0.03	1.47	0.00	0.00	0.00	0.00	0.00	0.00	1.00
44370	23	257	8	0.01	-0.08	1.19	0.00	0.00	0.00	0.00	0.00	0.00	1.00
44410	50	277	30	0.14	-0.02	0.75	0.00	0.00	0.00	0.00	0.00	0.00	1.00
44450	53	297	37	-0.04	0.01	0.63	0.00	0.00	0.00	0.00	0.00	0.00	1.00
44488	28	216	38	-0.25	0.08	0.49	0.00	0.00	0.00	0.00	0.00	0.00	1.00
44528	-9	104	16	-0.30	0.03	0.45	0.00	0.00	0.00	0.00	0.00	0.00	1.00
44568	-33	-58	-7	-0.48	0.03	0.48	0.00	0.00	0.00	0.00	0.00	0.00	1.00
44609	-57	-284	-2	-0.69	0.01	0.60	0.00	0.00	0.00	0.00	0.00	0.00	1.00
44650	-77	-500	33	-0.88	0.05	0.93	0.00	0.00	0.00	0.00	0.00	0.00	1.00
44691	-82	-500	91	-0.39	-0.07	1.79	0.00	0.00	0.00	0.00	0.00	0.00	1.00
44733	-61	-500	108	1.11	0.15	4.00	0.00	0.00	0.00	0.00	0.00	0.00	1.00
44775	-82	-489	21	1.61	-0.11	3.81	0.00	0.00	0.00	0.00	0.00	0.00	1.00
44816	-56	-135	-63	0.65	-0.04	2.60	0.00	0.00	0.00	0.00	0.00	0.00	1.00
44858	-61	-213	-58	-0.19	-0.14	3.00	0.00	0.00	0.00	0.00	0.00	0.00	1.00
44900	-18	-353	-18	-0.04	-0.10	2.26	0.00	0.00	0.00	0.00	0.00	0.00	1.00
44942	-6	-414	-24	0.16	-0.11	2.01	0.00	0.00	0.00	0.00	0.00	0.00	1.00
44985	7	-373	-18	0.40	-0.04	1.68	0.00	0.00	0.00	0.00	0.00	0.00	1.00
45027	-2	-286	-7	0.30	0.00	1.36	0.00	0.00	0.00	0.00	0.00	0.00	1.00
45069	-3	-232	10	0.20	-0.02	0.91	0.00	0.00	0.00	0.00	0.00	0.00	1.00
45110	-4	-189	29	0.11	-0.00	0.59	0.00	0.00	0.00	0.00	0.00	0.00	1.00
45152	-8	-175	38	0.07	-0.01	0.29	0.00	0.00	0.00	0.00	0.00	0.00	1.00
45194	-18	-153	36	0.07	0.02	0.07	0.00	0.00	0.00	0.00	0.00	0.00	1.00
45235	-26	-126	22	0.08	0.02	-0.08	0.00	0.00	0.00	0.00	0.00	0.00	1.00
45277	-23	-95	8	0.04	-0.04	-0.25	0.00	0.00	0.00	0.00	0.00	0.00	1.00
45319	-10	-73	3	0.01	-0.02	-0.37	0.00	0.00	0.00	0.00	0.00	0.00	1.00
45361	-7	-60	-11	-0.03	-0.01	-0.47	0.00	0.00	0.00	0.00	0.00	0.00	1.00
45402	4	-54	-18	-0.07	-0.04	-0.59	0.00	0.00	0.00	0.00	0.00	0.00	1.00
45443	9	-43	-17	-0.04	-0.03	-0.66	0.00	0.00	0.00	0.00	0.00	0.00	1.00
45485	10	-23	-5	-0.06	-0.04	-0.64	0.00	0.00	0.00	0.00	0.00	0.00	1.00
45526	7	3	6	-0.05	-0.05	-0.62	0.00	0.00	0.00	0.00	0.00	0.00	1.00
45566	6	32	21	-0.06	-0.05	-0.57	0.00	0.00	0.00	0.00	0.00	0.00	1.00
45606	6	60	33	-0.05	-0.05	-0.48	0.00	0.00	0.00	0.00	0.00	0.00	1.00
45646	3	83	33	-0.05	-0.06	-0.30	0.00	0.00	0.00	0.00	0.00	0.00	1.00
45687	-2	98	26	-0.02	-0.04	-0.14	0.00	0.00	0.00	0.00	0.00	0.00	1.00
45728	-5	119	18	0.04	-0.06	0.06	0.00	0.00	0.00	0.00	0.00	0.00	1.00
45768	2	151	1	0.11	-0.06	0.30	0.00	0.00	0.00	0.00	0.00	0.00	1.00
45808	9	196	-16	0.16	-0.08	0.50	0.00	0.00	0.00	0.00	0.00	0.00	1.00
45847	23	249	-25	0.23	-0.11	0.71	0.00	0.00	0.00	0.00	0.00	0.00	1.00
45887	35	308	-20	0.22	-0.12	0.99	0.00	0.00	0.00	0.00	0.00	0.00	1.00
45927	38	330	-16	0.10	-0.08	1.40	0.00	0.00	0.00	0.00	0.00	0.00	1.00
45966	16	309	-15	0.08	-0.09	1.78	0.00	0.00	0.00	0.00	0.00	0.00	1.00
46007	-6	284	-9	0.17	-0.12	2.35	0.00	0.00	0.00	0.00	0.00	0.00	1.00
46047	-8	288	2	0.47	-0.21	2.92	0.00	0.00	0.00	0.00	0.00	0.00	1.00
46088	15	378	10	0.43	-0.22	3.26	0.00	0.00	0.00	0.00	0.00	0.00	1.00
46127	32	416	14	0.29	-0.16	3.79	0.00	0.00	0.00	0.00	0.00	0.00	1.00
46166	27	384	-6	0.27	-0.05	4.00	0.00	0.00	0.00	0.00	0.00	0.00	1.00
46207	3	380	-40	0.38	-0.03	3.71	0.00	0.00	0.00	0.00	0.00	0.00	1.00
46246	-7	366	-63	0.15	-0.04	3.53	0.00	0.00	0.00	0.00	0.00	0.00	1.00
46286	-23	340	-43	0.28	-0.05	2.92	0.00	0.00	0.00	0.00	0.00	0.00	1.00
46326	-13	352	13	0.21	0.02	2.38	0.00	0.00	0.00	0.00	0.00	0.00	1.00
46366	-5	375	65	0.26	0.00	1.89	0.00	0.00	0.00	0.00	0.00	0.00	1.00
46406	12	408	101	0.19	-0.01	1.34	0.00	0.00	0.00	0.00	0.00	0.00	1.00
46446	35	373	82	-0.10	-0.04	1.00	0.00	0.00	0.00	0.00	0.00	0.00	1.00
46486	37	278	25	-0.15	0.01	0.68	0.00	0.00	0.00	0.00	0.00	0.00	1.00
46527	22	191	-11	-0.15	0.03	0.43	0.00	0.00	0.00	0.00	0.00	0.00	1.00
46566	-5	86	-28	-0.35	0.05	0.38	0.00	0.00	0.00	0.00	0.00	0.00	1.00
46606	-26	-119	-18	-0.73	0.05	0.35	0.00	0.00	0.00	0.00	0.00	0.00	1.00
46647	-49	-441	-1	-0.91	0.06	0.29	0.00	0.00	0.00	0.00	0.00	0.00	1.00
46688	-75	-500	22	-0.95	0.11	0.53	0.00	0.00	0.00	0.00	0.00	0.00	1.00
46729	-106	-500	48	-0.18	0.01	1.62	0.00	0.00	0.00	0.00	0.00	0.00	1.00
46769	-86	-500	43	1.42	0.18	4.00	0.00	0.00	0.00	0.00	0.00	0.00	1.00
46809	-62	-464	-35	1.83	-0.05	3.81	0.00	0.00	0.00	0.00	0.00	0.00	1.00
46849	-4	-59	-76	0.57	-0.08	2.34	0.00	0.00	0.00	0.00	0.00	0.00	1.00
46891	-7	-91	-35	-0.53	0.01	2.99	0.00	0.00	0.00	0.00	0.00	0.00	1.00
46930	-19	-292	-1	0.03	0.00	2.30	0.00	0.00	0.00	0.00	0.00	0.00	1.00
46970	-12	-334	-3	0.07	-0.13	1.87	0.00	0.00	0.00	0.00	0.00	0.00	1.00
47012	10	-343	-7	0.21	-0.04	1.64	0.00	0.00	0.00	0.00	0.00	0.00	1.00
47052	7	-302	9	0.25	-0.02	1.35	0.00	0.00	0.00	0.00	0.00	0.00	1.00
47092	4	-249	24	0.23	-0.04	1.05	0.00	0.00	0.00	0.00	0.00	0.00	1.00
47133	9	-202	26	0.18	-0.04	0.74	0.00	0.00	0.00	0.00	0.00	0.00	1.00
47172	-3	-171	20	0.14	-0.01	0.42	0.00	0.00	0.00	0.00	0.00	0.00	1.00
47212	-9	-146	18	0.12	-0.04	0.21	0.00	0.00	0.00	0.00	0.00	0.00	1.00
47253	-7	-125	22	0.11	-0.05	0.04	0.00	0.00	0.00	0.00	0.00	0.00	1.00
47293	-4	-98	15	0.11	-0.02	-0.12	0.00	0.00	0.00	0.00	0.00	0.00	1.00
47335	-7	-79	7	0.05	-0.03	-0.29	0.00	0.00	0.00	0.00	0.00	0.00	1.00
47375	-9	-65	-0	0.06	-0.02	-0.44	0.00	0.00	0.00	0.00	0.00	0.00	1.00
47417	-8	-43	4	0.04	-0.06	-0.49	0.00	0.00	0.00	0.00	0.00	0.00	1.00
47457	0	-27	6	0.02	-0.05	-0.51	0.00	0.00	0.00	0.00	0.00	0.00	1.00
47496	6	-7	-1	0.02	-0.05	-0.51	0.00	0.00	0.00	0.00	0.00	0.00	1.00
47538	11	9	-3	0.01	-0.06	-0.45	0.00	0.00	0.00	0.00	0.00	0.00	1.00
47578	12	29	-5	0.02	-0.07	-0.39	0.00	0.00	0.00	0.00	0.00	0.00	1.00
47619	8	58	-6	0.04	-0.08	-0.21	0.00	0.00	0.00	0.00	0.00	0.00	1.00
47659	-2	84	-11	0.05	-0.08	-0.05	0.00	0.00	0.00	0.00	0.00	0.00	1.00
47699	-8	112	-16	0.09	-0.08	0.10	0.00	0.00	0.00	0.00	0.00	0.00	1.00
47740	-7	144	-15	0.09	-0.12	0.29	0.00	0.00	0.00	0.00	0.00	0.00	1.00
47780	2	175	-18	0.16	-0.11	0.57	0.00	0.00	0.00	0.00	0.00	0.00	1.00
47819	6	219	-13	0.20	-0.07	0.78	0.00	0.00	0.00	0.00	0.00	0.00	1.00
47860	3	266	-2	0.25	-0.05	1.15	0.00	0.00	0.00	0.00	0.00	0.00	1.00
47899	-2	308	6	0.20	-0.09	1.52	0.00	0.00	0.00	0.00	0.00	0.00	1.00
47940	7	313	6	0.17	-0.08	2.05	0.00	0.00	0.00	0.00	0.00	0.00	1.00
47979	-12	298	-3	0.22	-0.08	2.51	0.00	0.00	0.00	0.00	0.00	0.00	1.00
48020	18	307	2	0.37	-0.05	3.00	0.00	0.00	0.00	0.00	0.00	0.00	1.00
48060	42	376	2	0.63	0.16	3.38	0.00	0.00	0.00	0.00	0.00	0.00	1.00
48099	13	441	-8	0.40	0.12	3.79	0.00	0.00	0.00	0.00	0.00	0.00	1.00
48138	19	455	8	0.43	0.14	3.77	0.00	0.00	0.00	0.00	0.00	0.00	1.00
48177	47	429	12	0.33	0.07	3.62	0.00	0.00	0.00	0.00	0.00	0.00	1.00
48216	63	493	33	1.12	0.16	4.00	0.00	0.00	0.00	0.00	0.00	0.00	1.00
48255	85	500	42	0.45	-0.02	2.88	0.00	0.00	0.00	0.00	0.00	0.00	1.00
48295	102	500	30	-0.14	0.08	1.42	0.00	0.00	0.00	0.00	0.00	0.00	1.00
48335	84	455	-20	0.12	-0.09	0.69	0.00	0.00	0.00	0.00	0.00	0.00	1.00
48374	30	191	-91	1.72	-0.49	-0.48	0.00	0.00	0.00	0.00	0.00	0.00	1.00
48414	-45	-267	-38	-0.04	0.05	0.32	0.00	0.00	0.00	0.00	0.00	0.00	1.00
48456	-56	-405	-21	-0.25	0.05	0.49	0.00	0.00	0.00	0.00	0.00	0.00	1.00
48496	-72	-500	43	-0.89	0.08	1.30	0.00	0.00	0.00	0.00	0.00	0.00	1.00
48537	-84	-500	57	0.43	-0.06	1.95	0.00	0.00	0.00	0.00	0.00	0.00	1.00
48577	-57	-500	25	0.92	-0.07	3.32	0.00	0.00	0.00	0.00	0.00	0.00	1.00
48618	-29	-251	-39	1.06	-0.10	2.61	0.00	0.00	0.00	0.00	0.00	0.00	1.00
48659	-7	-64	-74	0.30	-0.02	2.87	0.00	0.00	0.00	0.00	0.00	0.00	1.00
48699	-20	-177	-54	-0.26	0.10	2.95	0.00	0.00	0.00	0.00	0.00	0.00	1.00
48740	-4	-357	17	-0.02	-0.02	2.46	0.00	0.00	0.00	0.00	0.00	0.00	1.00
48781	2	-401	33	0.27	0.03	2.52	0.00	0.00	0.00	0.00	0.00	0.00	1.00
48820	-16	-339	19	0.43	0.02	2.13	0.00	0.00	0.00	0.00	0.00	0.00	1.00
48860	-10	-245	-9	0.36	-0.00	1.77	0.00	0.00	0.00	0.00	0.00	0.00	1.00
48900	-7	-199	-19	0.18	0.01	1.44	0.00	0.00	0.00	0.00	0.00	0.00	1.00
48940	-4	-208	-8	0.13	0.02	0.95	0.00	0.00	0.00	0.00	0.00	0.00	1.00
48979	3	-214	5	0.11	-0.01	0.62	0.00	0.00	0.00	0.00	0.00	0.00	1.00
49018	11	-225	15	0.07	0.01	0.46	0.00	0.00	0.00	0.00	0.00	0.00	1.00
49056	11	-235	26	0.08	0.01	0.22	0.00	0.00	0.00	0.00	0.00	0.00	1.00
49095	-1	-218	39	0.09	0.04	0.08	0.00	0.00	0.00	0.00	0.00	0.00	1.00
49134	-11	-174	47	0.08	-0.05	-0.12	0.00	0.00	0.00	0.00	0.00	0.00	1.00
49174	-10	-134	37	0.02	-0.03	-0.26	0.00	0.00	0.00	0.00	0.00	0.00	1.00
49214	-2	-94	24	-0.03	-0.07	-0.39	0.00	0.00	0.00	0.00	0.00	0.00	1.00
49254	1	-74	7	-0.06	-0.04	-0.46	0.00	0.00	0.00	0.00	0.00	0.00	1.00
49294	1	-42	-3	-0.08	-0.09	-0.51	0.00	0.00	0.00	0.00	0.00	0.00	1.00
49334	1	-22	-12	-0.12	-0.06	-0.51	0.00	0.00	0.00	0.00	0.00	0.00	1.00
49376	-4	-4	-13	-0.14	-0.07	-0.47	0.00	0.00	0.00	0.00	0.00	0.00	1.00
49416	-7	13	-9	-0.13	-0.07	-0.36	0.00	0.00	0.00	0.00	0.00	0.00	1.00
49456	-5	38	-8	-0.09	-0.07	-0.25	0.00	0.00	0.00	0.00	0.00	0.00	1.00
49496	-1	76	-10	-0.04	-0.07	-0.06	0.00	0.00	0.00	0.00	0.00	0.00	1.00
49536	2	126	-12	0.02	-0.09	0.11	0.00	0.00	0.00	0.00	0.00	0.00	1.00
49576	0	173	-12	0.09	-0.09	0.30	0.00	0.00	0.00	0.00	0.00	0.00	1.00
49614	-4	215	-13	0.15	-0.08	0.56	0.00	0.00	0.00	0.00	0.00	0.00	1.00
49653	-8	266	-11	0.17	-0.10	0.76	0.00	0.00	0.00	0.00	0.00	0.00	1.00
49695	-4	302	-10	0.17	-0.10	1.30	0.00	0.00	0.00	0.00	0.00	0.00	1.00
49735	1	317	-12	0.18	-0.13	1.70	0.00	0.00	0.00	0.00	0.00	0.00	1.00
49776	7	332	-18	0.25	-0.09	2.14	0.00	0.00	0.00	0.00	0.00	0.00	1.00
49816	-5	348	-23	0.30	-0.09	2.59	0.00	0.00	0.00	0.00	0.00	0.00	1.00
49856	-16	380	-4	0.35	-0.04	2.99	0.00	0.00	0.00	0.00	0.00	0.00	1.00
49897	-3	394	15	0.33	-0.03	3.44	0.00	0.00	0.00	0.00	0.00	0.00	1.00
49937	10	400	47	0.24	0.00	3.63	0.00	0.00	0.00	0.00	0.00	0.00	1.00
49975	36	354	50	0.14	-0.00	3.64	0.00	0.00	0.00	0.00	0.00	0.00	1.00
50014	27	331	6	0.31	0.09	3.40	0.00	0.00	0.00	0.00	0.00	0.00	1.00
50054	5	352	-43	0.41	-0.00	3.03	0.00	0.00	0.00	0.00	0.00	0.00	1.00
50094	49	436	-27	0.75	-0.06	2.67	0.00	0.00	0.00	0.00	0.00	0.00	1.00
50133	67	492	35	0.19	0.18	2.22	0.00	0.00	0.00	0.00	0.00	0.00	1.00
50172	23	411	86	-0.07	0.19	1.28	0.00	0.00	0.00	0.00	0.00	0.00	1.00
50211	-16	277	56	-0.10	-0.01	0.78	0.00	0.00	0.00	0.00	0.00	0.00	1.00
50252	-16	173	-3	-0.20	-0.00	0.56	0.00	0.00	0.00	0.00	0.00	0.00	1.00
50293	-40	-14	-50	-0.44	0.04	0.49	0.00	0.00	0.00	0.00	0.00	0.00	1.00
50334	-56	-250	-33	-0.47	0.07	0.52	0.00	0.00	0.00	0.00	0.00	0.00	1.00
50374	-73	-492	18	-0.68	-0.01	0.77	0.00	0.00	0.00	0.00	0.00	0.00	1.00
50415	-75	-500	12	-0.53	-0.02	1.34	0.00	0.00	0.00	0.00	0.00	0.00	1.00
50455	-73	-500	-2	0.28	0.10	2.93	0.00	0.00	0.00	0.00	0.00	0.00	1.00
50495	-86	-500	-24	1.37	0.14	3.99	0.00	0.00	0.00	0.00	0.00	0.00	1.00
50534	-47	-220	-15	1.12	-0.06	2.57	0.00	0.00	0.00	0.00	0.00	0.00	1.00
50573	-14	-35	-13	-0.00	-0.03	3.00	0.00	0.00	0.00	0.00	0.00	0.00	1.00
50614	-21	-222	-11	-0.25	0.01	2.33	0.00	0.00	0.00	0.00	0.00	0.00	1.00
50654	-20	-358	4	-0.07	-0.01	1.88	0.00	0.00	0.00	0.00	0.00	0.00	1.00
50693	-24	-403	1	0.17	-0.02	1.78	0.00	0.00	0.00	0.00	0.00	0.00	1.00
50733	-22	-369	1	0.36	-0.03	1.52	0.00	0.00	0.00	0.00	0.00	0.00	1.00
50772	-14	-277	-8	0.31	-0.02	1.27	0.00	0.00	0.00	0.00	0.00	0.00	1.00
50813	-8	-201	-15	0.24	-0.01	0.89	0.00	0.00	0.00	0.00	0.00	0.00	1.00
50852	-3	-157	-20	0.13	-0.02	0.53	0.00	0.00	0.00	0.00	0.00	0.00	1.00
50892	3	-135	-16	0.10	-0.02	0.25	0.00	0.00	0.00	0.00	0.00	0.00	1.00
50932	5	-119	3	0.08	0.00	0.07	0.00	0.00	0.00	0.00	0.00	0.00	1.00
50970	-2	-103	21	0.07	0.00	-0.06	0.00	0.00	0.00	0.00	0.00	0.00	1.00
51010	-6	-86	40	0.09	-0.04	-0.22	0.00	0.00	0.00	0.00	0.00	0.00	1.00
51050	-2	-59	46	0.11	-0.05	-0.37	0.00	0.00	0.00	0.00	0.00	0.00	1.00
51089	-4	-25	36	0.09	-0.05	-0.44	0.00	0.00	0.00	0.00	0.00	0.00	1.00
51129	-8	3	17	0.11	-0.05	-0.52	0.00	0.00	0.00	0.00	0.00	0.00	1.00
51168	-4	39	5	0.11	-0.06	-0.53	0.00	0.00	0.00	0.00	0.00	0.00	1.00
51210	-4	64	-2	0.07	-0.06	-0.52	0.00	0.00	0.00	0.00	0.00	0.00	1.00
51251	-2	83	-8	0.10	-0.07	-0.47	0.00	0.00	0.00	0.00	0.00	0.00	1.00
51292	5	97	-12	0.05	-0.07	-0.40	0.00	0.00	0.00	0.00	0.00	0.00	1.00
51332	9	101	-19	0.02	-0.07	-0.31	0.00	0.00	0.00	0.00	0.00	0.00	1.00
51372	6	104	-31	0.01	-0.08	-0.19	0.00	0.00	0.00	0.00	0.00	0.00	1.00
51414	-1	97	-39	-0.05	-0.08	0.02	0.00	0.00	0.00	0.00	0.00	0.00	1.00
51456	-9	69	-41	-0.10	-0.11	0.30	0.00	0.00	0.00	0.00	0.00	0.00	1.00
51498	-13	47	-29	0.01	-0.11	0.65	0.00	0.00	0.00	0.00	0.00	0.00	1.00
51540	-18	79	-7	0.26	-0.10	1.12	0.00	0.00	0.00	0.00	0.00	0.00	1.00
51581	-17	215	23	0.41	-0.06	1.22	0.00	0.00	0.00	0.00	0.00	0.00	1.00
51623	-9	331	28	0.28	-0.08	1.55	0.00	0.00	0.00	0.00	0.00	0.00	1.00
51664	5	372	14	0.17	-0.11	1.95	0.00	0.00	0.00	0.00	0.00	0.00	1.00
51705	3	344	4	0.02	-0.08	2.29	0.00	0.00	0.00	0.00	0.00	0.00	1.00
51745	-12	291	-0	0.12	-0.09	2.84	0.00	0.00	0.00	0.00	0.00	0.00	1.00
51787	-18	276	5	0.30	-0.15	3.18	0.00	0.00	0.00	0.00	0.00	0.00	1.00
51828	6	314	13	0.36	-0.16	3.41	0.00	0.00	0.00	0.00	0.00	0.00	1.00
51869	13	349	12	0.32	-0.06	3.33	0.00	0.00	0.00	0.00	0.00	0.00	1.00
51910	8	358	-9	0.22	-0.03	3.08	0.00	0.00	0.00	0.00	0.00	0.00	1.00
51951	3	360	4	0.27	0.05	2.71	0.00	0.00	0.00	0.00	0.00	0.00	1.00
51992	7	374	46	0.37	0.03	2.37	0.00	0.00	0.00	0.00	0.00	0.00	1.00
52031	32	394	96	0.26	0.01	1.97	0.00	0.00	0.00	0.00	0.00	0.00	1.00
52070	62	366	113	-0.02	0.04	1.24	0.00	0.00	0.00	0.00	0.00	0.00	1.00
52109	45	254	57	-0.22	0.08	0.79	0.00	0.00	0.00	0.00	0.00	0.00	1.00
52149	12	131	-27	-0.19	0.04	0.56	0.00	0.00	0.00	0.00	0.00	0.00	1.00
52189	-16	11	-81	-0.29	0.05	0.49	0.00	0.00	0.00	0.00	0.00	0.00	1.00
52229	-38	-161	-68	-0.50	0.05	0.61	0.00	0.00	0.00	0.00	0.00	0.00	1.00
52269	-48	-418	3	-0.66	0.03	0.86	0.00	0.00	0.00	0.00	0.00	0.00	1.00
52309	-55	-500	65	-0.52	-0.04	1.55	0.00	0.00	0.00	0.00	0.00	0.00	1.00
52351	-73	-500	60	0.41	0.11	2.94	0.00	0.00	0.00	0.00	0.00	0.00	1.00
52390	-100	-500	8	1.25	0.05	3.99	0.00	0.00	0.00	0.00	0.00	0.00	1.00
52431	-96	-208	-17	1.08	-0.19	3.45	0.00	0.00	0.00	0.00	0.00	0.00	1.00
52472	-45	-143	-50	-0.39	-0.23	3.80	0.00	0.00	0.00	0.00	0.00	0.00	1.00
52513	-9	-417	-67	-0.22	-0.11	2.78	0.00	0.00	0.00	0.00	0.00	0.00	1.00
52554	-3	-500	-78	0.02	-0.08	2.39	0.00	0.00	0.00	0.00	0.00	0.00	1.00
52594	4	-500	-78	0.33	-0.14	2.29	0.00	0.00	0.00	0.00	0.00	0.00	1.00
52635	23	-410	-49	0.41	-0.09	1.86	0.00	0.00	0.00	0.00	0.00	0.00	1.00
52675	31	-306	-15	0.22	-0.05	1.39	0.00	0.00	0.00	0.00	0.00	0.00	1.00
52715	35	-263	18	0.05	-0.00	0.89	0.00	0.00	0.00	0.00	0.00	0.00	1.00
52756	22	-257	37	-0.03	0.01	0.51	0.00	0.00	0.00	0.00	0.00	0.00	1.00
52795	16	-250	41	-0.01	-0.02	0.33	0.00	0.00	0.00	0.00	0.00	0.00	1.00
52836	11	-225	41	-0.04	-0.01	0.20	0.00	0.00	0.00	0.00	0.00	0.00	1.00
52877	7	-196	38	-0.12	-0.02	-0.04	0.00	0.00	0.00	0.00	0.00	0.00	1.00
52918	2	-163	26	-0.18	-0.01	-0.22	0.00	0.00	0.00	0.00	0.00	0.00	1.00
52959	-1	-134	15	-0.29	-0.03	-0.42	0.00	0.00	0.00	0.00	0.00	0.00	1.00
53000	2	-120	2	-0.34	-0.02	-0.54	0.00	0.00	0.00	0.00	0.00	0.00	1.00
53041	-2	-95	1	-0.45	-0.06	-0.64	0.00	0.00	0.00	0.00	0.00	0.00	1.00
53082	1	-77	-12	-0.47	-0.05	-0.69	0.00	0.00	0.00	0.00	0.00	0.00	1.00
53123	5	-55	-17	-0.51	-0.07	-0.67	0.00	0.00	0.00	0.00	0.00	0.00	1.00
53165	7	-33	-7	-0.51	-0.07	-0.64	0.00	0.00	0.00	0.00	0.00	0.00	1.00
53206	7	-2	4	-0.48	-0.09	-0.62	0.00	0.00	0.00	0.00	0.00	0.00	1.00
53247	6	38	13	-0.44	-0.06	-0.58	0.00	0.00	0.00	0.00	0.00	0.00	1.00
53287	5	80	12	-0.39	-0.08	-0.49	0.00	0.00	0.00	0.00	0.00	0.00	1.00
53327	7	116	13	-0.29	-0.06	-0.39	0.00	0.00	0.00	0.00	0.00	0.00	1.00
53368	4	144	12	-0.22	-0.07	-0.27	0.00	0.00	0.00	0.00	0.00	0.00	1.00
53408	6	167	24	-0.08	-0.06	-0.12	0.00	0.00	0.00	0.00	0.00	0.00	1.00
53449	14	205	29	0.03	-0.08	0.02	0.00	0.00	0.00	0.00	0.00	0.00	1.00
53488	17	262	30	0.18	-0.08	0.22	0.00	0.00	0.00	0.00	0.00	0.00	1.00
53527	25	346	20	0.30	-0.12	0.40	0.00	0.00	0.00	0.00	0.00	0.00	1.00
53566	48	434	0	0.31	-0.15	0.79	0.00	0.00	0.00	0.00	0.00	0.00	1.00
53606	52	469	-21	0.21	-0.13	1.28	0.00	0.00	0.00	0.00	0.00	0.00	1.00
53645	66	455	-54	0.09	-0.11	1.75	0.00	0.00	0.00	0.00	0.00	0.00	1.00
53686	40	391	-90	0.09	-0.04	2.05	0.00	0.00	0.00	0.00	0.00	0.00	1.00
53725	-4	328	-106	0.08	-0.00	2.32	0.00	0.00	0.00	0.00	0.00	0.00	1.00
53766	-39	289	-81	0.35	-0.09	2.77	0.00	0.00	0.00	0.00	0.00	0.00	1.00
53806	-36	323	-19	0.56	-0.05	3.25	0.00	0.00	0.00	0.00	0.00	0.00	1.00
53847	-17	415	68	0.50	-0.00	3.44	0.00	0.00	0.00	0.00	0.00	0.00	1.00
53887	6	392	72	0.18	-0.01	3.59	0.00	0.00	0.00	0.00	0.00	0.00	1.00
53926	14	323	42	0.18	0.04	3.25	0.00	0.00	0.00	0.00	0.00	0.00	1.00
53965	14	297	-40	0.43	-0.05	2.96	0.00	0.00	0.00	0.00	0.00	0.00	1.00
54005	-4	366	-72	0.60	0.08	2.62	0.00	0.00	0.00	0.00	0.00	0.00	1.00
54045	-15	429	16	0.33	0.02	2.25	0.00	0.00	0.00	0.00	0.00	0.00	1.00
54085	15	359	88	-0.04	-0.01	1.51	0.00	0.00	0.00	0.00	0.00	0.00	1.00
54125	28	242	76	-0.14	0.06	0.92	0.00	0.00	0.00	0.00	0.00	0.00	1.00
54164	1	138	13	-0.15	0.08	0.64	0.00	0.00	0.00	0.00	0.00	0.00	1.00
54202	-33	16	-38	-0.31	0.08	0.61	0.00	0.00	0.00	0.00	0.00	0.00	1.00
54243	-52	-164	-38	-0.44	0.03	0.69	0.00	0.00	0.00	0.00	0.00	0.00	1.00
54284	-31	-370	18	-0.48	0.02	1.01	0.00	0.00	0.00	0.00	0.00	0.00	1.00
54325	-24	-500	68	-0.33	0.01	1.76	0.00	0.00	0.00	0.00	0.00	0.00	1.00
54364	-40	-500	45	0.29	0.26	3.12	0.00	0.00	0.00	0.00	0.00	0.00	1.00
54403	-52	-497	-11	1.28	0.14	3.92	0.00	0.00	0.00	0.00	0.00	0.00	1.00
54443	-33	-244	-60	0.74	0.01	3.54	0.00	0.00	0.00	0.00	0.00	0.00	1.00
54484	-46	-212	-62	-0.07	0.01	3.51	0.00	0.00	0.00	0.00	0.00	0.00	1.00
54524	-15	-404	-37	-0.17	-0.16	2.78	0.00	0.00	0.00	0.00	0.00	0.00	1.00
54566	22	-500	-6	0.08	-0.11	2.46	0.00	0.00	0.00	0.00	0.00	0.00	1.00
54607	6	-500	-8	0.36	-0.04	2.27	0.00	0.00	0.00	0.00	0.00	0.00	1.00
54647	-10	-414	-5	0.40	-0.09	1.91	0.00	0.00	0.00	0.00	0.00	0.00	1.00
54687	2	-320	11	0.31	-0.06	1.41	0.00	0.00	0.00	0.00	0.00	0.00	1.00
54727	14	-267	23	0.12	0.00	0.98	0.00	0.00	0.00	0.00	0.00	0.00	1.00
54766	19	-263	32	0.01	0.01	0.58	0.00	0.00	0.00	0.00	0.00	0.00	1.00
54805	22	-265	33	-0.02	0.03	0.31	0.00	0.00	0.00	0.00	0.00	0.00	1.00
54843	14	-259	31	-0.02	0.00	0.20	0.00	0.00	0.00	0.00	0.00	0.00	1.00
54884	8	-224	21	-0.01	-0.03	0.00	0.00	0.00	0.00	0.00	0.00	0.00	1.00
54924	7	-182	9	-0.14	-0.02	-0.16	0.00	0.00	0.00	0.00	0.00	0.00	1.00
54964	2	-146	9	-0.23	-0.06	-0.35	0.00	0.00	0.00	0.00	0.00	0.00	1.00
55006	8	-122	11	-0.32	-0.08	-0.49	0.00	0.00	0.00	0.00	0.00	0.00	1.00
55045	14	-101	11	-0.37	-0.06	-0.60	0.00	0.00	0.00	0.00	0.00	0.00	1.00
55087	8	-63	12	-0.41	-0.07	-0.69	0.00	0.00	0.00	0.00	0.00	0.00	1.00
55126	3	-25	17	-0.45	-0.09	-0.71	0.00	0.00	0.00	0.00	0.00	0.00	1.00
55167	3	8	24	-0.51	-0.10	-0.75	0.00	0.00	0.00	0.00	0.00	0.00	1.00
55208	4	22	16	-0.44	-0.08	-0.74	0.00	0.00	0.00	0.00	0.00	0.00	1.00
55248	-3	46	0	-0.42	-0.09	-0.70	0.00	0.00	0.00	0.00	0.00	0.00	1.00
55289	-4	64	-0	-0.34	-0.08	-0.60	0.00	0.00	0.00	0.00	0.00	0.00	1.00
55331	-10	89	-8	-0.30	-0.08	-0.54	0.00	0.00	0.00	0.00	0.00	0.00	1.00
55372	-9	109	-16	-0.23	-0.08	-0.42	0.00	0.00	0.00	0.00	0.00	0.00	1.00
55413	-4	139	-31	-0.14	-0.08	-0.31	0.00	0.00	0.00	0.00	0.00	0.00	1.00
55455	-7	167	-42	-0.07	-0.04	-0.17	0.00	0.00	0.00	0.00	0.00	0.00	1.00
55497	-17	203	-38	0.05	-0.06	-0.00	0.00	0.00	0.00	0.00	0.00	0.00	1.00
55537	-16	249	-21	0.12	-0.10	0.20	0.00	0.00	0.00	0.00	0.00	0.00	1.00
55577	-1	302	1	0.19	-0.12	0.40	0.00	0.00	0.00	0.00	0.00	0.00	1.00
55617	14	348	20	0.18	-0.11	0.74	0.00	0.00	0.00	0.00	0.00	0.00	1.00
55656	27	365	25	0.15	-0.12	1.07	0.00	0.00	0.00	0.00	0.00	0.00	1.00
55696	24	357	14	0.17	-0.08	1.57	0.00	0.00	0.00	0.00	0.00	0.00	1.00
55735	8	339	-7	0.21	-0.10	1.94	0.00	0.00	0.00	0.00	0.00	0.00	1.00
55775	3	322	-13	0.24	-0.09	2.36	0.00	0.00	0.00	0.00	0.00	0.00	1.00
55816	-3	321	-24	0.36	-0.08	2.83	0.00	0.00	0.00	0.00	0.00	0.00	1.00
55856	12	352	-15	0.51	-0.09	3.24	0.00	0.00	0.00	0.00	0.00	0.00	1.00
55895	19	399	-9	0.45	0.05	3.47	0.00	0.00	0.00	0.00	0.00	0.00	1.00
55934	4	397	-7	0.35	0.11	3.68	0.00	0.00	0.00	0.00	0.00	0.00	1.00
55973	-1	358	9	0.32	0.13	3.61	0.00	0.00	0.00	0.00	0.00	0.00	1.00
56013	9	316	3	0.29	0.13	3.16	0.00	0.00	0.00	0.00	0.00	0.00	1.00
56052	19	325	-22	0.53	0.09	2.76	0.00	0.00	0.00	0.00	0.00	0.00	1.00
56091	70	416	-69	0.62	-0.03	2.32	0.00	0.00	0.00	0.00	0.00	0.00	1.00
56132	72	421	-46	0.14	0.23	1.87	0.00	0.00	0.00	0.00	0.00	0.00	1.00
56170	26	330	16	-0.03	0.20	1.18	0.00	0.00	0.00	0.00	0.00	0.00	1.00
56210	5	246	30	-0.04	0.07	0.74	0.00	0.00	0.00	0.00	0.00	0.00	1.00
56249	17	138	33	-0.24	0.05	0.57	0.00	0.00	0.00	0.00	0.00	0.00	1.00
56289	3	-32	36	-0.40	0.12	0.51	0.00	0.00	0.00	0.00	0.00	0.00	1.00
56330	-37	-238	21	-0.52	0.14	0.51	0.00	0.00	0.00	0.00	0.00	0.00	1.00
56370	-75	-477	52	-0.70	0.06	0.69	0.00	0.00	0.00	0.00	0.00	0.00	1.00
56410	-77	-500	67	-0.37	-0.09	1.25	0.00	0.00	0.00	0.00	0.00	0.00	1.00
56450	-46	-500	56	0.41	-0.23	2.88	0.00	0.00	0.00	0.00	0.00	0.00	1.00
56491	-41	-500	46	1.51	-0.03	3.99	0.00	0.00	0.00	0.00	0.00	0.00	1.00
56531	-22	-156	80	1.15	-0.12	2.51	0.00	0.00	0.00	0.00	0.00	0.00	1.00
56571	-35	-20	72	-0.18	0.15	3.23	0.00	0.00	0.00	0.00	0.00	0.00	1.00
56612	-74	-233	41	-0.02	0.17	2.52	0.00	0.00	0.00	0.00	0.00	0.00	1.00
56652	-79	-313	35	0.07	0.15	2.00	0.00	0.00	0.00	0.00	0.00	0.00	1.00
56692	-70	-371	20	0.13	0.10	1.84	0.00	0.00	0.00	0.00	0.00	0.00	1.00
56733	-55	-340	-33	0.35	0.09	1.59	0.00	0.00	0.00	0.00	0.00	0.00	1.00
56773	-37	-267	-76	0.30	0.07	1.30	0.00	0.00	0.00	0.00	0.00	0.00	1.00
56812	-24	-206	-92	0.24	0.04	0.94	0.00	0.00	0.00	0.00	0.00	0.00	1.00
56852	-8	-162	-73	0.16	0.00	0.64	0.00	0.00	0.00	0.00	0.00	0.00	1.00
56892	10	-144	-28	0.09	-0.02	0.33	0.00	0.00	0.00	0.00	0.00	0.00	1.00
56933	15	-134	18	0.06	0.01	0.17	0.00	0.00	0.00	0.00	0.00	0.00	1.00
56972	-0	-132	46	0.08	0.05	0.01	0.00	0.00	0.00	0.00	0.00	0.00	1.00
57012	-14	-121	60	0.08	-0.02	-0.16	0.00	0.00	0.00	0.00	0.00	0.00	1.00
57053	-18	-97	63	0.09	-0.02	-0.34	0.00	0.00	0.00	0.00	0.00	0.00	1.00
57094	-23	-66	37	0.08	-0.04	-0.47	0.00	0.00	0.00	0.00	0.00	0.00	1.00
57135	-23	-42	6	0.08	-0.05	-0.57	0.00	0.00	0.00	0.00	0.00	0.00	1.00
57176	-16	-5	-15	0.11	-0.05	-0.65	0.00	0.00	0.00	0.00	0.00	0.00	1.00
57216	-4	29	-33	0.09	-0.07	-0.67	0.00	0.00	0.00	0.00	0.00	0.00	1.00
57258	4	62	-47	0.13	-0.04	-0.68	0.00	0.00	0.00	0.00	0.00	0.00	1.00
57297	3	91	-46	0.08	-0.05	-0.63	0.00	0.00	0.00	0.00	0.00	0.00	1.00
57338	9	104	-21	0.09	-0.04	-0.58	0.00	0.00	0.00	0.00	0.00	0.00	1.00
57377	3	122	-13	0.06	-0.04	-0.49	0.00	0.00	0.00	0.00	0.00	0.00	1.00
57417	-1	121	-10	-0.00	-0.05	-0.39	0.00	0.00	0.00	0.00	0.00	0.00	1.00
57459	-6	98	0	-0.06	-0.06	-0.20	0.00	0.00	0.00	0.00	0.00	0.00	1.00
57499	-9	66	6	-0.13	-0.06	-0.03	0.00	0.00	0.00	0.00	0.00	0.00	1.00
57540	-12	8	12	-0.21	-0.05	0.26	0.00	0.00	0.00	0.00	0.00	0.00	1.00
57580	-16	-39	30	-0.04	-0.08	0.65	0.00	0.00	0.00	0.00	0.00	0.00	1.00
57621	-6	-1	51	0.30	-0.09	1.09	0.00	0.00	0.00	0.00	0.00	0.00	1.00
57662	17	165	60	0.58	-0.10	1.28	0.00	0.00	0.00	0.00	0.00	0.00	1.00
57702	48	352	43	0.51	-0.17	1.44	0.00	0.00	0.00	0.00	0.00	0.00	1.00
57740	71	437	-3	0.15	-0.11	2.08	0.00	0.00	0.00	0.00	0.00	0.00	1.00
57781	43	409	-25	0.16	-0.09	2.65	0.00	0.00	0.00	0.00	0.00	0.00	1.00
57820	15	370	-23	0.09	-0.12	3.13	0.00	0.00	0.00	0.00	0.00	0.00	1.00
57861	12	347	20	0.44	-0.21	3.61	0.00	0.00	0.00	0.00	0.00	0.00	1.00
57900	46	388	85	0.32	-0.22	3.89	0.00	0.00	0.00	0.00	0.00	0.00	1.00
57940	66	389	109	0.35	-0.17	3.78	0.00	0.00	0.00	0.00	0.00	0.00	1.00
57979	85	379	92	0.21	-0.15	3.40	0.00	0.00	0.00	0.00	0.00	0.00	1.00
58017	104	348	52	0.23	-0.10	2.99	0.00	0.00	0.00	0.00	0.00	0.00	1.00
58056	76	368	-25	0.51	0.01	2.61	0.00	0.00	0.00	0.00	0.00	0.00	1.00
58096	25	432	-41	0.34	-0.06	2.24	0.01	0.00	0.00	0.00	0.00	0.00	0.99
58136	20	395	-14	0.01	-0.11	1.47	0.00	0.00	0.00	0.00	0.00	0.00	1.00
58176	23	285	12	-0.14	0.00	0.85	0.00	0.00	0.00	0.00	0.00	0.00	1.00
58216	-11	177	-8	-0.13	0.01	0.57	0.00	0.00	0.00	0.00	0.00	0.00	1.00
58257	-38	60	-29	-0.28	0.01	0.51	0.00	0.00	0.00	0.00	0.00	0.00	1.00
58298	-48	-114	-35	-0.48	-0.02	0.48	0.00	0.00	0.00	0.00	0.00	0.00	1.00
58339	-41	-342	-25	-0.57	0.01	0.59	0.00	0.00	0.00	0.00	0.00	0.00	1.00
58381	-30	-500	0	-0.66	0.01	1.02	0.00	0.00	0.00	0.00	0.00	0.00	1.00
58421	-51	-500	4	-0.17	0.29	1.95	0.00	0.00	0.00	0.00	0.00	0.00	1.00
58461	-91	-500	-15	0.97	0.40	3.90	0.00	0.00	0.00	0.00	0.00	0.00	1.00
58503	-129	-457	-144	1.09	-0.16	2.83	0.00	0.00	0.00	0.00	0.00	0.00	1.00
58544	-97	-148	-179	0.40	-0.34	2.55	0.00	0.00	0.00	0.00	0.00	0.00	1.00
58585	21	-190	-175	-0.22	-0.32	2.51	0.00	0.00	0.00	0.00	0.00	0.00	1.00
58626	107	-321	-103	-0.03	-0.27	1.87	0.00	0.00	0.00	0.00	0.00	0.00	1.00
58667	131	-374	-31	0.10	-0.11	1.67	0.00	0.00	0.00	0.00	0.00	0.00	1.00
58707	97	-356	43	0.25	-0.02	1.33	0.00	0.00	0.00	0.00	0.00	0.00	1.00
58747	54	-286	91	0.26	-0.02	0.98	0.00	0.00	0.00	0.00	0.00	0.00	1.00
58787	34	-220	99	0.19	-0.03	0.70	0.00	0.00	0.00	0.00	0.00	0.00	1.00
58826	26	-181	85	0.11	0.00	0.40	0.00	0.00	0.00	0.00	0.00	0.00	1.00
58865	18	-137	53	0.11	0.01	0.20	0.00	0.00	0.00	0.00	0.00	0.00	1.00
58905	15	-95	20	0.07	-0.06	0.07	0.00	0.00	0.00	0.00	0.00	0.00	1.00
58945	21	-61	2	0.06	-0.07	-0.03	0.00	0.00	0.00	0.00	0.00	0.00	1.00
58986	18	-29	-6	0.06	-0.07	-0.11	0.00	0.00	0.00	0.00	0.00	0.00	1.00
59027	9	-0	-8	0.04	-0.08	-0.16	0.00	0.00	0.00	0.00	0.00	0.00	1.00
59066	1	19	-3	0.02	-0.10	-0.22	0.00	0.00	0.00	0.00	0.00	0.00	1.00
59107	1	36	10	0.05	-0.10	-0.23	0.00	0.00	0.00	0.00	0.00	0.00	1.00
59146	-0	67	24	0.08	-0.10	-0.16	0.00	0.00	0.00	0.00	0.00	0.00	1.00
59187	-0	100	27	0.07	-0.10	-0.09	0.00	0.00	0.00	0.00	0.00	0.00	1.00
59227	4	126	22	0.07	-0.10	0.01	0.00	0.00	0.00	0.00	0.00	0.00	1.00
59266	9	153	10	0.10	-0.12	0.21	0.00	0.00	0.00	0.00	0.00	0.00	1.00
59306	12	184	-6	0.13	-0.11	0.44	0.00	0.00	0.00	0.00	0.00	0.00	1.00
59345	3	220	-20	0.17	-0.08	0.71	0.00	0.00	0.00	0.00	0.00	0.00	1.00
59385	-14	257	-30	0.20	-0.07	1.05	0.00	0.00	0.00	0.00	0.00	0.00	1.00
59426	-22	287	-27	0.21	-0.09	1.46	0.00	0.00	0.00	0.00	0.00	0.00	1.00
59466	-5	302	-17	0.19	-0.10	1.73	0.00	0.00	0.00	0.00	0.00	0.00	1.00
59507	1	303	-10	0.17	-0.06	2.04	0.00	0.00	0.00	0.00	0.00	0.00	1.00
59547	4	278	7	0.13	-0.08	2.35	0.00	0.00	0.00	0.00	0.00	0.00	1.00
59585	1	258	14	0.23	-0.03	2.66	0.00	0.00	0.00	0.00	0.00	0.00	1.00
59625	-2	266	9	0.30	-0.03	2.83	0.00	0.00	0.00	0.00	0.00	0.00	1.00
59666	15	287	4	0.27	-0.03	2.75	0.00	0.00	0.00	0.00	0.00	0.00	1.00
59705	20	285	-10	0.24	0.05	2.65	0.00	0.00	0.00	0.00	0.00	0.00	1.00
59746	15	310	-46	0.37	0.06	2.36	0.00	0.00	0.00	0.00	0.00	0.00	1.00
59786	22	346	-62	0.27	0.07	2.02	0.00	0.00	0.00	0.00	0.00	0.00	1.00
59827	24	328	-40	0.11	0.10	1.64	0.00	0.00	0.00	0.00	0.00	0.00	1.00
59865	23	279	14	0.01	0.08	1.14	0.00	0.00	0.00	0.00	0.00	0.00	1.00
59904	21	226	45	-0.14	0.05	0.83	0.00	0.00	0.00	0.00	0.00	0.00	1.00
59944	10	120	55	-0.23	0.03	0.70	0.00	0.00	0.00	0.00	0.00	0.00	1.00
59983	-4	-12	29	-0.28	-0.01	0.61	0.00	0.00	0.00	0.00	0.00	0.00	1.00
60024	-19	-139	-2	-0.29	0.01	0.63	0.00	0.00	0.00	0.00	0.00	0.00	1.00
60065	-36	-294	-1	-0.44	0.00	1.00	0.00	0.00	0.00	0.00	0.00	0.00	1.00
60106	-39	-481	34	-0.26	-0.08	1.48	0.00	0.00	0.00	0.00	0.00	0.00	1.00
60147	-14	-500	49	0.40	-0.03	2.36	0.00	0.00	0.00	0.00	0.00	0.00	1.00
60186	-1	-499	41	0.71	0.09	3.28	0.00	0.00	0.00	0.00	0.00	0.00	1.00
60227	-17	-241	-23	0.87	0.04	2.33	0.00	0.00	0.00	0.00	0.00	0.00	1.00
60268	-26	-103	-38	0.12	0.07	2.39	0.00	0.00	0.00	0.00	0.00	0.00	1.00
60308	-28	-229	-24	-0.18	0.02	2.01	0.00	0.00	0.00	0.00	0.00	0.00	1.00
60349	-9	-347	2	-0.05	-0.04	1.61	0.00	0.00	0.00	0.00	0.00	0.00	1.00
60390	-3	-397	10	0.10	-0.02	1.52	0.00	0.00	0.00	0.00	0.00	0.00	1.00
60431	-8	-356	12	0.34	-0.02	1.29	0.00	0.00	0.00	0.00	0.00	0.00	1.00
60470	-15	-255	13	0.35	-0.00	1.00	0.00	0.00	0.00	0.00	0.00	0.00	1.00
60511	-10	-170	7	0.24	-0.03	0.77	0.00	0.00	0.00	0.00	0.00	0.00	1.00
60550	-4	-117	-1	0.17	0.01	0.51	0.00	0.00	0.00	0.00	0.00	0.00	1.00
60590	-2	-82	-4	0.11	0.01	0.30	0.00	0.00	0.00	0.00	0.00	0.00	1.00
60631	1	-61	2	0.05	-0.00	0.14	0.00	0.00	0.00	0.00	0.00	0.00	1.00
60671	6	-50	11	0.03	-0.03	0.01	0.00	0.00	0.00	0.00	0.00	0.00	1.00
60711	10	-43	16	0.01	-0.02	-0.07	0.00	0.00	0.00	0.00	0.00	0.00	1.00
60752	11	-33	22	0.01	-0.03	-0.11	0.00	0.00	0.00	0.00	0.00	0.00	1.00
60792	9	-20	24	0.02	-0.02	-0.10	0.00	0.00	0.00	0.00	0.00	0.00	1.00
60833	4	3	27	0.06	-0.03	-0.04	0.00	0.00	0.00	0.00	0.00	0.00	1.00
60873	3	44	25	0.12	-0.03	0.07	0.00	0.00	0.00	0.00	0.00	0.00	1.00
60911	4	85	21	0.16	-0.05	0.21	0.00	0.00	0.00	0.00	0.00	0.00	1.00
60950	9	142	13	0.19	-0.05	0.33	0.00	0.00	0.00	0.00	0.00	0.00	1.00
60990	9	209	3	0.25	-0.07	0.58	0.00	0.00	0.00	0.00	0.00	0.00	1.00
61030	14	270	-13	0.25	-0.08	0.83	0.00	0.00	0.00	0.00	0.00	0.00	1.00
61069	23	317	-33	0.22	-0.08	1.13	0.00	0.00	0.00	0.00	0.00	0.00	1.00
61109	18	308	-46	0.09	-0.05	1.66	0.00	0.00	0.00	0.00	0.00	0.00	1.00
61150	-6	274	-41	0.19	-0.07	1.90	0.00	0.00	0.00	0.00	0.00	0.00	1.00
61190	-11	255	-28	0.18	-0.11	2.20	0.00	0.00	0.00	0.00	0.00	0.00	1.00
61230	3	236	-17	0.27	-0.12	2.51	0.00	0.00	0.00	0.00	0.00	0.00	1.00
61269	17	251	1	0.35	-0.07	2.71	0.00	0.00	0.00	0.00	0.00	0.00	1.00
61309	4	280	14	0.37	-0.02	2.70	0.00	0.00	0.00	0.00	0.00	0.00	1.00
61348	5	303	28	0.30	0.02	2.48	0.00	0.00	0.00	0.00	0.00	0.00	1.00
61387	9	309	38	0.31	0.05	2.26	0.00	0.00	0.00	0.00	0.00	0.00	1.00
61426	16	315	38	0.28	0.04	2.13	0.00	0.00	0.00	0.00	0.00	0.00	1.00
61466	35	313	29	0.34	-0.00	1.89	0.00	0.00	0.00	0.00	0.00	0.00	1.00
61505	59	320	14	0.24	0.05	1.55	0.00	0.00	0.00	0.00	0.00	0.00	1.00
61544	53	294	7	0.04	0.06	1.00	0.00	0.00	0.00	0.00	0.00	0.00	1.00
61583	29	202	12	-0.16	0.09	0.66	0.00	0.00	0.00	0.00	0.00	0.00	1.00
61622	5	82	7	-0.22	0.03	0.48	0.00	0.00	0.00	0.00	0.00	0.00	1.00
61662	-19	-54	0	-0.32	0.04	0.49	0.00	0.00	0.00	0.00	0.00	0.00	1.00
61701	-47	-201	7	-0.31	0.05	0.67	0.00	0.00	0.00	0.00	0.00	0.00	1.00
61741	-78	-371	38	-0.40	0.04	1.06	0.00	0.00	0.00	0.00	0.00	0.00	1.00
61780	-97	-500	61	-0.25	-0.03	1.80	0.00	0.00	0.00	0.00	0.00	0.00	1.00
61820	-86	-500	66	0.54	-0.02	2.99	0.00	0.00	0.00	0.00	0.00	0.00	1.00
61860	-61	-433	38	0.91	0.09	3.65	0.00	0.00	0.00	0.00	0.00	0.00	1.00
61899	-68	-252	2	0.82	0.09	3.15	0.00	0.00	0.00	0.00	0.00	0.00	1.00
61937	-60	-178	-28	0.07	0.06	3.13	0.00	0.00	0.00	0.00	0.00	0.00	1.00
61977	-65	-329	-6	-0.17	0.07	2.55	0.00	0.00	0.00	0.00	0.00	0.00	1.00
62017	-73	-469	-10	0.00	0.00	2.16	0.00	0.00	0.00	0.00	0.00	0.00	1.00
62056	-87	-470	-47	0.34	-0.06	1.85	0.00	0.00	0.00	0.00	0.00	0.00	1.00
62096	-63	-362	-67	0.41	-0.14	1.50	0.00	0.00	0.00	0.00	0.00	0.00	1.00
62136	-27	-247	-66	0.29	-0.07	1.06	0.00	0.00	0.00	0.00	0.00	0.00	1.00
62176	3	-182	-38	0.15	-0.02	0.77	0.00	0.00	0.00	0.00	0.00	0.00	1.00
62215	32	-151	12	0.13	0.00	0.44	0.00	0.00	0.00	0.00	0.00	0.00	1.00
62254	36	-122	24	0.09	-0.01	0.22	0.00	0.00	0.00	0.00	0.00	0.00	1.00
62293	28	-106	16	0.08	-0.02	0.08	0.00	0.00	0.00	0.00	0.00	0.00	1.00
62332	9	-87	-3	0.06	-0.02	-0.06	0.00	0.00	0.00	0.00	0.00	0.00	1.00
62371	-11	-81	-16	-0.01	-0.01	-0.20	0.00	0.00	0.00	0.00	0.00	0.00	1.00
62412	-24	-92	-30	-0.02	-0.02	-0.28	0.00	0.00	0.00	0.00	0.00	0.00	1.00
62453	-17	-85	-43	0.05	-0.03	-0.38	0.00	0.00	0.00	0.00	0.00	0.00	1.00
62496	15	-51	-61	0.04	-0.05	-0.41	0.00	0.00	0.00	0.00	0.00	0.00	1.00
62537	45	-23	-76	-0.02	-0.05	-0.47	0.00	0.00	0.00	0.00	0.00	0.00	1.00
62579	69	-1	-86	0.02	-0.03	-0.50	0.00	0.00	0.00	0.00	0.00	0.00	1.00
62619	56	27	-64	-0.04	0.01	-0.42	0.00	0.00	0.00	0.00	0.00	0.00	1.00
62660	2	40	-27	-0.01	-0.00	-0.43	0.00	0.00	0.00	0.00	0.00	0.00	1.00
62700	-21	58	-15	-0.01	-0.05	-0.33	0.00	0.00	0.00	0.00	0.00	0.00	1.00
62740	-34	86	-20	-0.01	-0.07	-0.23	0.00	0.00	0.00	0.00	0.00	0.00	1.00
62780	-48	120	-30	0.07	-0.04	-0.03	0.00	0.00	0.00	0.00	0.00	0.00	1.00
62821	-80	173	-22	0.11	-0.02	0.15	0.00	0.00	0.00	0.00	0.00	0.00	1.00
62860	-109	222	8	0.17	-0.07	0.39	0.00	0.00	0.00	0.00	0.00	0.00	1.00
62900	-130	279	55	0.23	-0.10	0.74	0.00	0.00	0.00	0.00	0.00	0.00	1.00
62938	-155	331	92	0.18	-0.21	1.10	0.00	0.00	0.00	0.00	0.00	0.00	1.00
62977	-150	329	94	0.01	-0.40	1.40	0.00	0.00	0.00	0.00	0.00	0.00	1.00
63017	-116	293	72	0.06	-0.52	1.89	0.00	0.00	0.00	0.00	0.00	0.00	1.00
63055	-93	262	52	0.17	-0.67	2.34	0.00	0.00	0.00	0.00	0.00	0.00	1.00
63095	-93	290	68	0.22	-0.83	2.73	0.00	0.00	0.00	0.00	0.00	0.00	1.00
63133	-71	305	101	0.38	-0.90	2.98	0.00	0.00	0.00	0.00	0.00	0.00	1.00
63172	-75	328	148	0.11	-0.91	3.17	0.01	0.00	0.00	0.00	0.00	0.00	0.99
63212	-78	309	181	0.13	-1.00	3.05	0.22	0.00	0.00	0.00	0.00	0.00	0.78
63250	-50	257	161	0.10	-0.99	2.95	0.12	0.00	0.00	0.00	0.00	0.00	0.88
63290	-13	224	138	0.12	-0.98	2.68	0.05	0.00	0.00	0.00	0.00	0.00	0.95
63328	-7	249	145	0.36	-0.75	2.22	0.39	0.00	0.00	0.00	0.00	0.00	0.61
63367	25	274	141	0.18	-0.69	1.87	0.95	0.00	0.00	0.00	0.00	0.00	0.05
63406	36	289	118	0.27	-0.53	1.66	0.99	0.00	0.00	0.00	0.00	0.00	0.01
63444	27	312	112	0.13	-0.38	1.32	0.99	0.00	0.00	0.00	0.00	0.00	0.01
63485	4	224	73	-0.11	-0.27	0.90	0.85	0.00	0.00	0.00	0.00	0.00	0.15
63525	2	122	10	-0.12	-0.27	0.62	0.69	0.00	0.00	0.00	0.00	0.00	0.31
63564	19	22	-42	-0.14	-0.30	0.49	1.00	0.00	0.00	0.00	0.00	0.00	0.00
63603	48	-63	-87	-0.29	-0.33	0.58	1.00	0.00	0.00	0.00	0.00	0.00	0.00
63643	82	-216	-143	-0.52	-0.39	0.90	1.00	0.00	0.00	0.00	0.00	0.00	0.00
63684	79	-430	-185	-0.60	-0.39	1.12	1.00	0.00	0.00	0.00	0.00	0.00	0.00
63723	81	-500	-190	0.04	-0.82	2.09	1.00	0.00	0.00	0.00	0.00	0.00	0.00
63762	93	-500	-120	0.40	-1.08	2.92	1.00	0.00	0.00	0.00	0.00	0.00	0.00
63802	34	-350	27	0.82	-0.91	3.06	1.00	0.00	0.00	0.00	0.00	0.00	0.00
63841	-8	-217	75	0.09	-1.00	3.01	1.00	0.00	0.00	0.00	0.00	0.00	0.00
63880	-60	-296	-15	-0.19	-0.85	2.74	1.00	0.00	0.00	0.00	0.00	0.00	0.00
63921	-81	-399	-106	0.08	-0.83	2.39	1.00	0.00	0.00	0.00	0.00	0.00	0.00
63961	-69	-352	-124	0.34	-0.81	2.17	1.00	0.00	0.00	0.00	0.00	0.00	0.00
64000	-27	-265	-103	0.31	-0.65	1.88	1.00	0.00	0.00	0.00	0.00	0.00	0.00
64041	-18	-211	-97	0.19	-0.46	1.51	1.00	0.00	0.00	0.00	0.00	0.00	0.00
64080	-14	-186	-88	0.09	-0.33	1.07	1.00	0.00	0.00	0.00	0.00	0.00	0.00
64121	-8	-200	-86	0.03	-0.25	0.74	1.00	0.00	0.00	0.00	0.00	0.00	0.00
64160	7	-193	-74	0.13	-0.16	0.45	0.98	0.00	0.00	0.00	0.00	0.00	0.02
64199	7	-185	-59	0.09	-0.07	0.24	0.03	0.00	0.00	0.00	0.00	0.00	0.97
64239	2	-162	-25	0.12	-0.00	0.08	0.00	0.00	0.00	0.00	0.00	0.00	1.00
64278	-7	-143	-17	0.10	0.04	-0.08	0.00	0.00	0.00	0.00	0.00	0.00	1.00
64320	-18	-88	-42	0.14	0.02	-0.33	0.00	0.01	0.00	0.00	0.00	0.00	0.99
64361	-2	-41	-67	0.18	0.10	-0.48	0.01	0.38	0.00	0.00	0.00	0.00	0.61
64401	16	28	-71	0.16	0.09	-0.53	0.01	0.59	0.00	0.00	0.00	0.00	0.40
64440	23	68	-67	0.09	0.12	-0.47	0.00	0.81	0.00	0.00	0.00	0.00	0.19
64480	33	64	-34	-0.00	0.09	-0.49	0.00	0.99	0.00	0.00	0.00	0.00	0.01
64522	34	46	-12	-0.02	0.09	-0.48	0.00	1.00	0.00	0.00	0.00	0.00	0.00
64562	40	19	5	-0.04	0.03	-0.47	0.00	1.00	0.00	0.00	0.00	0.00	0.00
64601	48	-8	18	-0.07	-0.02	-0.42	0.00	1.00	0.00	0.00	0.00	0.00	0.00
64643	50	-32	27	-0.14	-0.03	-0.26	0.00	1.00	0.00	0.00	0.00	0.00	0.00
64684	31	-61	37	-0.12	-0.01	-0.02	0.00	1.00	0.00	0.00	0.00	0.00	0.00
64726	3	-42	47	0.03	-0.04	0.21	0.00	1.00	0.00	0.00	0.00	0.00	0.00
64768	-8	38	49	0.18	-0.03	0.40	0.00	1.00	0.00	0.00	0.00	0.00	0.00
64809	-24	170	43	0.33	-0.01	0.61	0.00	1.00	0.00	0.00	0.00	0.00	0.00
64851	-20	295	24	0.24	-0.13	0.76	0.00	1.00	0.00	0.00	0.00	0.00	0.00
64892	1	372	9	0.25	-0.16	1.09	0.00	0.49	0.00	0.00	0.00	0.00	0.51
64932	26	403	14	0.12	-0.12	1.74	0.00	0.00	0.00	0.00	0.00	0.00	1.00
64973	28	390	27	0.18	-0.06	2.25	0.00	0.00	0.00	0.00	0.00	0.00	1.00
65014	-9	368	14	0.21	-0.11	2.99	0.00	0.00	0.00	0.00	0.00	0.00	1.00
65055	-43	368	-25	0.32	-0.15	3.53	0.00	0.00	0.00	0.00	0.00	0.00	1.00
65096	-58	414	-30	0.49	-0.32	3.82	0.00	0.00	0.00	0.00	0.00	0.00	1.00
65139	2	455	93	0.27	-0.33	3.81	0.00	0.00	0.00	0.00	0.00	0.00	1.00
65179	56	412	168	0.14	-0.16	3.41	0.00	0.00	0.00	0.00	0.00	0.00	1.00
65219	47	333	102	0.11	-0.09	2.86	0.00	0.00	0.00	0.00	0.00	0.00	1.00
65261	39	282	7	0.23	-0.17	2.49	0.00	0.00	0.00	0.00	0.00	0.00	1.00
65301	88	302	-31	0.47	-0.10	2.10	0.00	0.00	0.00	0.00	0.00	0.00	1.00
65342	92	353	-16	0.30	0.06	1.57	0.00	0.00	0.00	0.00	0.00	0.00	1.00
65381	38	295	-8	-0.12	0.12	0.95	0.00	0.00	0.00	0.00	0.00	0.00	1.00
65421	-20	169	-29	-0.25	0.05	0.61	0.00	0.00	0.00	0.00	0.00	0.00	1.00
65461	-42	28	-26	-0.30	0.01	0.51	0.00	0.00	0.00	0.00	0.00	0.00	1.00
65501	-40	-148	18	-0.48	-0.00	0.56	0.00	0.00	0.00	0.00	0.00	0.00	1.00
65542	-54	-376	42	-0.61	0.03	0.79	0.00	0.00	0.00	0.00	0.00	0.00	1.00
65583	-49	-500	63	-0.50	0.03	1.51	0.00	0.00	0.00	0.00	0.00	0.00	1.00
65623	-48	-500	73	-0.05	0.32	2.89	0.00	0.00	0.00	0.00	0.00	0.00	1.00
65664	-86	-500	32	1.20	0.57	4.00	0.00	0.00	0.00	0.00	0.00	0.00	1.00
65704	-75	-231	-48	0.94	0.11	3.38	0.00	0.00	0.00	0.00	0.00	0.00	1.00
65744	-24	-160	-46	-0.24	0.19	3.38	0.00	0.00	0.00	0.00	0.00	0.00	1.00
65783	9	-365	24	-0.22	0.20	2.72	0.00	0.00	0.00	0.00	0.00	0.00	1.00
65822	2	-491	53	-0.05	0.24	2.39	0.00	0.00	0.00	0.00	0.00	0.00	1.00
65861	-39	-499	28	0.31	0.23	2.21	0.00	0.00	0.00	0.00	0.00	0.00	1.00
65900	-42	-417	-0	0.44	0.08	1.83	0.00	0.00	0.00	0.00	0.00	0.00	1.00
65941	-5	-285	-32	0.22	0.04	1.36	0.00	0.00	0.00	0.00	0.00	0.00	1.00
65980	31	-228	-34	0.09	0.04	0.99	0.00	0.00	0.00	0.00	0.00	0.00	1.00
66020	55	-219	-15	-0.01	0.02	0.55	0.00	0.00	0.00	0.00	0.00	0.00	1.00
66061	63	-229	9	-0.02	0.04	0.28	0.00	0.00	0.00	0.00	0.00	0.00	1.00
66100	29	-218	40	0.00	0.02	0.15	0.00	0.00	0.00	0.00	0.00	0.00	1.00
66141	-6	-189	59	-0.03	-0.02	0.00	0.00	0.00	0.00	0.00	0.00	0.00	1.00
66181	-20	-154	48	-0.09	-0.09	-0.18	0.00	0.00	0.00	0.00	0.00	0.00	1.00
66222	-9	-116	19	-0.11	-0.12	-0.35	0.00	0.00	0.00	0.00	0.00	0.00	1.00
66264	19	-58	-13	-0.20	-0.14	-0.54	0.00	0.00	0.00	0.00	0.00	0.00	1.00
66305	29	-53	-9	-0.22	-0.15	-0.68	0.00	0.00	0.00	0.00	0.00	0.00	1.00
66346	26	-38	-2	-0.22	-0.17	-0.78	0.00	0.00	0.00	0.00	0.00	0.00	1.00
66387	12	-29	11	-0.24	-0.17	-0.82	0.00	0.00	0.00	0.00	0.00	0.00	1.00
66428	-8	-11	24	-0.24	-0.17	-0.79	0.00	0.00	0.00	0.00	0.00	0.00	1.00
66469	-21	7	37	-0.25	-0.18	-0.75	0.00	0.00	0.00	0.00	0.00	0.00	1.00
66510	-17	31	37	-0.22	-0.16	-0.69	0.00	0.00	0.00	0.00	0.00	0.00	1.00
66550	-13	51	22	-0.21	-0.14	-0.57	0.00	0.00	0.00	0.00	0.00	0.00	1.00
66590	-8	70	1	-0.18	-0.12	-0.44	0.00	0.00	0.00	0.00	0.00	0.00	1.00
66631	-14	91	-11	-0.13	-0.11	-0.30	0.00	0.00	0.00	0.00	0.00	0.00	1.00
66673	-18	115	-9	-0.09	-0.09	-0.13	0.00	0.00	0.00	0.00	0.00	0.00	1.00
66714	-22	139	-2	-0.02	-0.08	0.08	0.00	0.00	0.00	0.00	0.00	0.00	1.00
66755	-31	182	10	0.09	-0.07	0.31	0.00	0.00	0.00	0.00	0.00	0.00	1.00
66795	-32	246	27	0.18	-0.06	0.54	0.00	0.00	0.00	0.00	0.00	0.00	1.00
66835	-29	328	32	0.27	-0.08	0.86	0.00	0.00	0.00	0.00	0.00	0.00	1.00
66875	-5	400	26	0.22	-0.16	1.28	0.00	0.00	0.00	0.00	0.00	0.00	1.00
66915	35	427	12	0.15	-0.13	1.72	0.00	0.00	0.00	0.00	0.00	0.00	1.00
66955	56	399	7	0.08	-0.10	2.10	0.00	0.00	0.00	0.00	0.00	0.00	1.00
66994	25	356	-23	0.12	0.06	2.48	0.00	0.00	0.00	0.00	0.00	0.00	1.00
67033	-24	346	-27	0.19	-0.09	2.83	0.00	0.00	0.00	0.00	0.00	0.00	1.00
67074	-5	320	-12	0.35	-0.09	3.35	0.00	0.00	0.00	0.00	0.00	0.00	1.00
67115	27	385	24	0.33	-0.16	3.78	0.00	0.00	0.00	0.00	0.00	0.00	1.00
67154	38	389	19	0.39	-0.04	3.50	0.00	0.00	0.00	0.00	0.00	0.00	1.00
67194	21	381	14	0.09	0.05	3.23	0.00	0.00	0.00	0.00	0.00	0.00	1.00
67233	14	304	-1	0.18	-0.02	2.91	0.00	0.00	0.00	0.00	0.00	0.00	1.00
67273	52	298	-31	0.40	-0.13	2.50	0.00	0.00	0.00	0.00	0.00	0.00	1.00
67313	88	364	-37	0.39	0.07	2.03	0.00	0.00	0.00	0.00	0.00	0.00	1.00
67352	61	363	-10	0.05	0.16	1.43	0.00	0.00	0.00	0.00	0.00	0.00	1.00
67392	10	284	17	-0.16	0.11	0.90	0.00	0.00	0.00	0.00	0.00	0.00	1.00
67430	-24	164	22	-0.23	0.08	0.70	0.00	0.00	0.00	0.00	0.00	0.00	1.00
67470	-46	18	16	-0.36	0.03	0.64	0.00	0.00	0.00	0.00	0.00	0.00	1.00
67511	-49	-148	27	-0.39	0.03	0.70	0.00	0.00	0.00	0.00	0.00	0.00	1.00
67551	-62	-340	51	-0.50	0.08	0.97	0.00	0.00	0.00	0.00	0.00	0.00	1.00
67592	-81	-500	76	-0.47	0.11	1.59	0.00	0.00	0.00	0.00	0.00	0.00	1.00
67632	-106	-500	81	-0.03	0.18	2.74	0.00	0.00	0.00	0.00	0.00	0.00	1.00
67672	-96	-500	25	1.01	0.25	4.00	0.00	0.00	0.00	0.00	0.00	0.00	1.00
67713	-70	-280	-89	1.02	0.06	3.55	0.00	0.00	0.00	0.00	0.00	0.00	1.00
67753	-51	-160	-97	-0.04	0.12	3.36	0.00	0.00	0.00	0.00	0.00	0.00	1.00
67795	-18	-343	-5	-0.22	-0.01	2.79	0.00	0.00	0.00	0.00	0.00	0.00	1.00
67835	10	-466	41	-0.01	0.00	2.26	0.00	0.00	0.00	0.00	0.00	0.00	1.00
67874	-17	-479	31	0.29	0.08	1.95	0.00	0.00	0.00	0.00	0.00	0.00	1.00
67915	-47	-386	16	0.34	0.01	1.66	0.00	0.00	0.00	0.00	0.00	0.00	1.00
67955	-42	-301	8	0.28	-0.09	1.33	0.00	0.00	0.00	0.00	0.00	0.00	1.00
67996	-18	-230	8	0.18	-0.07	0.90	0.00	0.00	0.00	0.00	0.00	0.00	1.00
68036	-2	-199	11	0.08	-0.05	0.56	0.00	0.00	0.00	0.00	0.00	0.00	1.00
68076	7	-184	16	0.04	-0.01	0.26	0.00	0.00	0.00	0.00	0.00	0.00	1.00
68116	6	-175	24	-0.00	-0.02	0.10	0.00	0.00	0.00	0.00	0.00	0.00	1.00
68156	2	-168	24	-0.02	-0.03	-0.07	0.00	0.00	0.00	0.00	0.00	0.00	1.00
68198	-4	-155	27	-0.08	-0.04	-0.31	0.00	0.00	0.00	0.00	0.00	0.00	1.00
68239	-12	-121	21	-0.10	-0.06	-0.46	0.00	0.00	0.00	0.00	0.00	0.00	1.00
68279	-12	-92	11	-0.17	-0.04	-0.61	0.00	0.00	0.00	0.00	0.00	0.00	1.00
68321	-5	-53	6	-0.20	-0.07	-0.71	0.00	0.00	0.00	0.00	0.00	0.00	1.00
68362	8	-38	23	-0.26	-0.06	-0.79	0.00	0.00	0.00	0.00	0.00	0.00	1.00
68404	12	-31	36	-0.24	-0.08	-0.79	0.00	0.00	0.00	0.00	0.00	0.00	1.00
68444	14	-12	29	-0.26	-0.06	-0.77	0.00	0.00	0.00	0.00	0.00	0.00	1.00
68485	15	4	8	-0.26	-0.10	-0.73	0.00	0.00	0.00	0.00	0.00	0.00	1.00
68526	13	25	-15	-0.25	-0.09	-0.65	0.00	0.00	0.00	0.00	0.00	0.00	1.00
68566	7	47	-22	-0.23	-0.11	-0.54	0.00	0.00	0.00	0.00	0.00	0.00	1.00
68608	8	68	-14	-0.19	-0.11	-0.38	0.00	0.00	0.00	0.00	0.00	0.00	1.00
68649	7	85	-5	-0.15	-0.08	-0.23	0.00	0.00	0.00	0.00	0.00	0.00	1.00
68689	3	105	3	-0.08	-0.07	-0.06	0.00	0.00	0.00	0.00	0.00	0.00	1.00
68730	5	137	10	-0.00	-0.07	0.13	0.00	0.00	0.00	0.00	0.00	0.00	1.00
68769	12	188	8	0.12	-0.09	0.35	0.00	0.00	0.00	0.00	0.00	0.00	1.00
68809	26	266	5	0.26	-0.11	0.60	0.00	0.00	0.00	0.00	0.00	0.00	1.00
68849	37	354	-3	0.28	-0.09	0.87	0.00	0.00	0.00	0.00	0.00	0.00	1.00
68889	31	411	-21	0.20	-0.06	1.41	0.00	0.00	0.00	0.00	0.00	0.00	1.00
68929	15	404	-59	0.12	-0.11	1.87	0.00	0.00	0.00	0.00	0.00	0.00	1.00
68968	16	355	-90	0.08	-0.15	2.34	0.00	0.00	0.00	0.00	0.00	0.00	1.00
69008	10	322	-82	0.34	-0.15	2.82	0.00	0.00	0.00	0.00	0.00	0.00	1.00
69048	-18	360	-33	0.42	-0.11	3.44	0.00	0.00	0.00	0.00	0.00	0.00	1.00
69088	-10	417	35	0.67	-0.22	3.73	0.00	0.00	0.00	0.00	0.00	0.00	1.00
69129	41	460	106	0.36	-0.17	4.00	0.00	0.00	0.00	0.00	0.00	0.00	1.00
69168	102	434	108	0.44	0.06	3.95	0.00	0.00	0.00	0.00	0.00	0.00	1.00
69207	70	393	16	0.21	0.18	3.35	0.00	0.00	0.00	0.00	0.00	0.00	1.00
69245	41	361	-41	0.34	0.10	2.91	0.00	0.00	0.00	0.00	0.00	0.00	1.00
69284	53	345	-81	0.27	-0.04	2.50	0.00	0.00	0.00	0.00	0.00	0.00	1.00
69325	88	343	-72	0.39	0.06	2.19	0.00	0.00	0.00	0.00	0.00	0.00	1.00
69364	63	370	-20	0.20	0.18	1.34	0.00	0.00	0.00	0.00	0.00	0.00	1.00
69404	10	311	44	-0.11	0.17	0.81	0.00	0.00	0.00	0.00	0.00	0.00	1.00
69444	-31	171	54	-0.32	0.06	0.63	0.00	0.00	0.00	0.00	0.00	0.00	1.00
69484	-53	12	19	-0.34	0.02	0.56	0.00	0.00	0.00	0.00	0.00	0.00	1.00
69523	-63	-184	-5	-0.53	0.01	0.67	0.00	0.00	0.00	0.00	0.00	0.00	1.00
69564	-69	-431	7	-0.75	0.07	0.96	0.00	0.00	0.00	0.00	0.00	0.00	1.00
69604	-87	-500	47	-0.59	0.07	1.55	0.00	0.00	0.00	0.00	0.00	0.00	1.00
69645	-126	-500	37	0.24	0.19	2.91	0.00	0.00	0.00	0.00	0.00	0.00	1.00
69685	-126	-500	18	1.35	0.04	3.99	0.00	0.00	0.00	0.00	0.00	0.00	1.00
69725	-34	-266	-42	1.29	-0.16	3.17	0.00	0.00	0.00	0.00	0.00	0.00	1.00
69765	-3	-85	-82	-0.15	0.10	3.48	0.00	0.00	0.00	0.00	0.00	0.00	1.00
69806	-29	-321	-16	-0.28	0.05	2.67	0.00	0.00	0.00	0.00	0.00	0.00	1.00
69847	-9	-473	61	-0.10	-0.04	2.14	0.00	0.00	0.00	0.00	0.00	0.00	1.00
69888	-28	-500	59	0.24	0.06	1.89	0.00	0.00	0.00	0.00	0.00	0.00	1.00
69927	-60	-430	47	0.40	0.03	1.61	0.00	0.00	0.00	0.00	0.00	0.00	1.00
69967	-52	-317	23	0.33	-0.06	1.25	0.00	0.00	0.00	0.00	0.00	0.00	1.00
70007	-29	-243	-1	0.16	-0.02	0.86	0.00	0.00	0.00	0.00	0.00	0.00	1.00
70048	-12	-220	-15	0.03	-0.02	0.51	0.00	0.00	0.00	0.00	0.00	0.00	1.00
70089	-1	-221	-14	-0.04	-0.01	0.20	0.00	0.00	0.00	0.00	0.00	0.00	1.00
70130	4	-208	-2	-0.00	-0.03	0.09	0.00	0.00	0.00	0.00	0.00	0.00	1.00
70171	5	-171	8	-0.05	-0.02	-0.13	0.00	0.00	0.00	0.00	0.00	0.00	1.00
70212	5	-146	10	-0.14	-0.03	-0.30	0.00	0.00	0.00	0.00	0.00	0.00	1.00
70253	4	-116	1	-0.18	-0.05	-0.54	0.00	0.00	0.00	0.00	0.00	0.00	1.00
70293	-4	-97	7	-0.24	-0.04	-0.57	0.00	0.00	0.00	0.00	0.00	0.00	1.00
70333	-10	-70	23	-0.32	-0.06	-0.77	0.00	0.00	0.00	0.00	0.00	0.00	1.00
70375	-10	-72	31	-0.39	-0.08	-0.84	0.00	0.00	0.00	0.00	0.00	0.00	1.00
70417	4	-58	15	-0.35	-0.07	-0.80	0.00	0.00	0.00	0.00	0.00	0.00	1.00
70458	10	-30	-15	-0.39	-0.08	-0.83	0.00	0.00	0.00	0.00	0.00	0.00	1.00
70500	8	-4	-18	-0.38	-0.10	-0.75	0.00	0.00	0.00	0.00	0.00	0.00	1.00
70540	6	34	-2	-0.38	-0.08	-0.74	0.00	0.00	0.00	0.00	0.00	0.00	1.00
70582	-1	51	9	-0.37	-0.08	-0.65	0.00	0.00	0.00	0.00	0.00	0.00	1.00
70623	1	70	7	-0.31	-0.08	-0.56	0.00	0.00	0.00	0.00	0.00	0.00	1.00
70664	3	87	11	-0.27	-0.07	-0.41	0.00	0.00	0.00	0.00	0.00	0.00	1.00
70704	2	99	10	-0.20	-0.07	-0.30	0.00	0.00	0.00	0.00	0.00	0.00	1.00
70744	3	120	-2	-0.12	-0.07	-0.14	0.00	0.00	0.00	0.00	0.00	0.00	1.00
70784	4	150	-23	-0.02	-0.06	0.01	0.00	0.00	0.00	0.00	0.00	0.00	1.00
70824	0	200	-35	0.11	-0.07	0.14	0.00	0.00	0.00	0.00	0.00	0.00	1.00
70864	-7	266	-42	0.19	-0.07	0.31	0.00	0.00	0.00	0.00	0.00	0.00	1.00
70905	-6	331	-38	0.24	-0.08	0.50	0.00	0.00	0.00	0.00	0.00	0.00	1.00
70945	-3	392	-29	0.31	-0.09	0.84	0.00	0.00	0.00	0.00	0.00	0.00	1.00
70986	11	449	-25	0.28	-0.07	1.38	0.00	0.00	0.00	0.00	0.00	0.00	1.00
71025	2	427	-21	0.13	-0.04	1.86	0.00	0.00	0.00	0.00	0.00	0.00	1.00
71066	-15	368	-26	0.13	-0.06	2.36	0.00	0.00	0.00	0.00	0.00	0.00	1.00
71106	-37	307	-32	0.20	-0.04	2.88	0.00	0.00	0.00	0.00	0.00	0.00	1.00
71146	-39	317	-32	0.45	-0.13	3.39	0.00	0.00	0.00	0.00	0.00	0.00	1.00
71187	-35	400	5	0.74	-0.07	3.54	0.00	0.00	0.00	0.00	0.00	0.00	1.00
71226	-21	476	42	0.25	-0.12	3.64	0.00	0.00	0.00	0.00	0.00	0.00	1.00
71267	0	390	55	0.17	-0.05	3.41	0.00	0.00	0.00	0.00	0.00	0.00	1.00
71307	16	300	61	0.15	0.01	3.09	0.00	0.00	0.00	0.00	0.00	0.00	1.00
71345	28	285	47	0.43	0.01	2.63	0.00	0.00	0.00	0.00	0.00	0.00	1.00
71385	48	347	23	0.49	0.04	2.25	0.00	0.00	0.00	0.00	0.00	0.00	1.00
71424	58	380	4	0.21	0.05	1.70	0.00	0.00	0.00	0.00	0.00	0.00	1.00
71464	45	300	7	-0.11	0.11	1.13	0.00	0.00	0.00	0.00	0.00	0.00	1.00
71505	10	179	1	-0.17	0.08	0.80	0.00	0.00	0.00	0.00	0.00	0.00	1.00
71546	-19	51	-13	-0.26	0.04	0.68	0.00	0.00	0.00	0.00	0.00	0.00	1.00
71589	-38	-93	-11	-0.33	0.04	0.76	0.00	0.00	0.00	0.00	0.00	0.00	1.00
71630	-44	-299	26	-0.54	-0.00	1.04	0.00	0.00	0.00	0.00	0.00	0.00	1.00
71673	-52	-500	69	-0.41	0.05	1.55	0.00	0.00	0.00	0.00	0.00	0.00	1.00
71714	-88	-500	70	-0.13	0.10	2.42	0.00	0.00	0.00	0.00	0.00	0.00	1.00
71755	-106	-500	39	0.74	0.04	3.98	0.00	0.00	0.00	0.00	0.00	0.00	1.00
71797	-71	-455	-16	1.18	-0.06	3.52	0.00	0.00	0.00	0.00	0.00	0.00	1.00
71838	-55	-164	-55	0.22	-0.09	3.23	0.00	0.00	0.00	0.00	0.00	0.00	1.00
71881	-32	-306	-45	-0.11	-0.10	2.75	0.00	0.00	0.00	0.00	0.00	0.00	1.00
71924	-6	-420	-13	0.03	-0.06	2.25	0.00	0.00	0.00	0.00	0.00	0.00	1.00
71966	-14	-444	1	0.26	-0.02	1.98	0.00	0.00	0.00	0.00	0.00	0.00	1.00
72008	-21	-376	11	0.38	-0.03	1.52	0.00	0.00	0.00	0.00	0.00	0.00	1.00
72048	-13	-282	13	0.28	-0.02	1.15	0.00	0.00	0.00	0.00	0.00	0.00	1.00
72089	-10	-214	10	0.12	-0.00	0.78	0.00	0.00	0.00	0.00	0.00	0.00	1.00
72129	-12	-210	4	0.02	-0.01	0.44	0.00	0.00	0.00	0.00	0.00	0.00	1.00
72170	-11	-219	3	-0.02	-0.02	0.20	0.00	0.00	0.00	0.00	0.00	0.00	1.00
72211	-10	-215	-5	0.01	-0.01	0.03	0.00	0.00	0.00	0.00	0.00	0.00	1.00
72252	-9	-199	-15	-0.03	-0.01	-0.08	0.00	0.00	0.00	0.00	0.00	0.00	1.00
72294	-1	-171	-33	-0.07	-0.04	-0.30	0.00	0.00	0.00	0.00	0.00	0.00	1.00
72335	4	-150	-35	-0.16	-0.03	-0.47	0.00	0.00	0.00	0.00	0.00	0.00	1.00
72376	4	-128	-5	-0.23	-0.04	-0.60	0.00	0.00	0.00	0.00	0.00	0.00	1.00
72417	1	-110	19	-0.31	-0.06	-0.68	0.00	0.00	0.00	0.00	0.00	0.00	1.00
72458	2	-78	20	-0.31	-0.02	-0.72	0.00	0.00	0.00	0.00	0.00	0.00	1.00
72498	5	-37	11	-0.40	-0.07	-0.76	0.00	0.00	0.00	0.00	0.00	0.00	1.00
72539	11	4	-6	-0.36	-0.07	-0.78	0.00	0.00	0.00	0.00	0.00	0.00	1.00
72579	9	46	-1	-0.39	-0.07	-0.74	0.00	0.00	0.00	0.00	0.00	0.00	1.00
72621	-4	70	6	-0.34	-0.06	-0.68	0.00	0.00	0.00	0.00	0.00	0.00	1.00
72661	-10	95	20	-0.28	-0.07	-0.58	0.00	0.00	0.00	0.00	0.00	0.00	1.00
72703	-13	111	16	-0.23	-0.05	-0.43	0.00	0.00	0.00	0.00	0.00	0.00	1.00
72744	-10	123	8	-0.15	-0.05	-0.28	0.00	0.00	0.00	0.00	0.00	0.00	1.00
72784	-10	150	-7	-0.07	-0.03	-0.12	0.00	0.00	0.00	0.00	0.00	0.00	1.00
72826	-19	178	-12	-0.00	-0.05	0.06	0.00	0.00	0.00	0.00	0.00	0.00	1.00
72866	-16	214	-7	0.08	-0.09	0.28	0.00	0.00	0.00	0.00	0.00	0.00	1.00
72906	-9	271	8	0.24	-0.10	0.56	0.00	0.00	0.00	0.00	0.00	0.00	1.00
72946	1	350	18	0.29	-0.10	0.90	0.00	0.00	0.00	0.00	0.00	0.00	1.00
72985	-0	400	17	0.26	-0.06	1.37	0.00	0.00	0.00	0.00	0.00	0.00	1.00
73025	-5	419	2	0.15	-0.12	1.78	0.00	0.00	0.00	0.00	0.00	0.00	1.00
73065	-1	373	-29	0.08	-0.12	2.23	0.00	0.00	0.00	0.00	0.00	0.00	1.00
73105	-27	299	-61	0.07	-0.10	2.67	0.00	0.00	0.00	0.00	0.00	0.00	1.00
73146	-21	290	-30	0.58	-0.09	3.21	0.00	0.00	0.00	0.00	0.00	0.00	1.00
73186	-34	395	39	0.67	-0.02	3.41	0.00	0.00	0.00	0.00	0.00	0.00	1.00
73227	-11	500	114	0.59	-0.11	3.87	0.00	0.00	0.00	0.00	0.00	0.00	1.00
73265	37	479	111	0.31	-0.01	3.82	0.00	0.00	0.00	0.00	0.00	0.00	1.00
73305	66	393	61	0.12	0.08	3.38	0.00	0.00	0.00	0.00	0.00	0.00	1.00
73344	42	321	-16	0.41	0.09	3.00	0.00	0.00	0.00	0.00	0.00	0.00	1.00
73384	72	396	-61	0.83	-0.00	2.85	0.00	0.00	0.00	0.00	0.00	0.00	1.00
73425	72	482	-19	0.35	0.16	1.87	0.00	0.00	0.00	0.00	0.00	0.00	1.00
73464	25	382	43	-0.19	0.13	0.99	0.00	0.00	0.00	0.00	0.00	0.00	1.00
73503	-12	232	6	-0.15	0.01	0.59	0.00	0.00	0.00	0.00	0.00	0.00	1.00
73543	-34	99	-31	-0.25	0.02	0.43	0.00	0.00	0.00	0.00	0.00	0.00	1.00
73583	-47	-94	-18	-0.45	0.01	0.46	0.00	0.00	0.00	0.00	0.00	0.00	1.00
73625	-59	-317	15	-0.53	0.04	0.59	0.00	0.00	0.00	0.00	0.00	0.00	1.00
73665	-74	-500	44	-0.71	0.04	1.00	0.00	0.00	0.00	0.00	0.00	0.00	1.00
73705	-97	-500	17	-0.26	0.06	1.93	0.00	0.00	0.00	0.00	0.00	0.00	1.00
73746	-95	-500	-6	0.87	0.13	3.98	0.00	0.00	0.00	0.00	0.00	0.00	1.00
73786	-59	-450	-7	1.53	0.01	3.86	0.00	0.00	0.00	0.00	0.00	0.00	1.00
73826	-25	-65	-44	0.56	-0.02	3.22	0.00	0.00	0.00	0.00	0.00	0.00	1.00
73866	-41	-201	-40	-0.34	0.06	3.04	0.00	0.00	0.00	0.00	0.00	0.00	1.00
73906	-17	-401	-13	-0.16	-0.06	2.31	0.00	0.00	0.00	0.00	0.00	0.00	1.00
73946	-1	-492	-29	0.12	-0.01	2.07	0.00	0.00	0.00	0.00	0.00	0.00	1.00
73986	-4	-452	-27	0.41	0.03	1.80	0.00	0.00	0.00	0.00	0.00	0.00	1.00
74025	-0	-329	-12	0.41	-0.01	1.47	0.00	0.00	0.00	0.00	0.00	0.00	1.00
74066	-0	-235	0	0.23	0.01	1.11	0.00	0.00	0.00	0.00	0.00	0.00	1.00
74104	-0	-207	8	0.07	-0.01	0.67	0.00	0.00	0.00	0.00	0.00	0.00	1.00
74144	3	-201	18	0.04	0.01	0.33	0.00	0.00	0.00	0.00	0.00	0.00	1.00
74183	1	-197	28	0.02	-0.01	0.18	0.00	0.00	0.00	0.00	0.00	0.00	1.00
74221	3	-185	34	0.05	-0.02	0.02	0.00	0.00	0.00	0.00	0.00	0.00	1.00
74261	0	-167	36	-0.02	-0.01	-0.12	0.00	0.00	0.00	0.00	0.00	0.00	1.00
74300	-5	-152	24	-0.03	-0.02	-0.35	0.00	0.00	0.00	0.00	0.00	0.00	1.00
74341	-13	-118	2	-0.06	-0.02	-0.48	0.00	0.00	0.00	0.00	0.00	0.00	1.00
74381	-17	-74	-11	-0.09	-0.02	-0.63	0.00	0.00	0.00	0.00	0.00	0.00	1.00
74421	-9	-42	-2	-0.15	-0.04	-0.73	0.00	0.00	0.00	0.00	0.00	0.00	1.00
74462	-1	-19	5	-0.12	-0.02	-0.81	0.00	0.00	0.00	0.00	0.00	0.00	1.00
74502	5	1	12	-0.14	-0.02	-0.80	0.00	0.00	0.00	0.00	0.00	0.00	1.00
74542	10	17	16	-0.11	-0.05	-0.83	0.00	0.00	0.00	0.00	0.00	0.00	1.00
74581	11	33	8	-0.14	-0.05	-0.82	0.00	0.00	0.00	0.00	0.00	0.00	1.00
74623	8	38	2	-0.13	-0.06	-0.78	0.00	0.00	0.00	0.00	0.00	0.00	1.00
74662	8	53	-1	-0.11	-0.08	-0.72	0.00	0.00	0.00	0.00	0.00	0.00	1.00
74704	5	72	-9	-0.10	-0.07	-0.62	0.00	0.00	0.00	0.00	0.00	0.00	1.00
74745	1	88	-13	-0.09	-0.08	-0.47	0.00	0.00	0.00	0.00	0.00	0.00	1.00
74785	-1	103	-5	-0.08	-0.08	-0.30	0.00	0.00	0.00	0.00	0.00	0.00	1.00
74825	-2	114	0	-0.07	-0.09	-0.11	0.00	0.00	0.00	0.00	0.00	0.00	1.00
74865	-2	124	6	-0.03	-0.09	0.10	0.00	0.00	0.00	0.00	0.00	0.00	1.00
74905	3	143	12	0.03	-0.11	0.37	0.00	0.00	0.00	0.00	0.00	0.00	1.00
74943	11	183	17	0.17	-0.12	0.63	0.00	0.00	0.00	0.00	0.00	0.00	1.00
74982	26	250	15	0.23	-0.12	0.88	0.00	0.00	0.00	0.00	0.00	0.00	1.00
75020	28	299	0	0.26	-0.08	1.17	0.00	0.00	0.00	0.00	0.00	0.00	1.00
75059	11	357	-31	0.27	-0.07	1.58	0.00	0.00	0.00	0.00	0.00	0.00	1.00
75098	-9	366	-48	0.14	-0.08	1.99	0.00	0.00	0.00	0.00	0.00	0.00	1.00
75137	-14	341	-60	0.27	-0.08	2.53	0.00	0.00	0.00	0.00	0.00	0.00	1.00
75177	-42	362	-60	0.35	-0.05	3.05	0.00	0.00	0.00	0.00	0.00	0.00	1.00
75217	-38	399	-38	0.41	-0.13	3.31	0.00	0.00	0.00	0.00	0.00	0.00	1.00
75256	-16	411	23	0.30	-0.05	3.55	0.00	0.00	0.00	0.00	0.00	0.00	1.00
75295	-5	387	86	0.30	-0.14	3.76	0.00	0.00	0.00	0.00	0.00	0.00	1.00
75334	13	367	100	0.23	0.02	3.56	0.00	0.00	0.00	0.00	0.00	0.00	1.00
75373	20	333	42	0.26	-0.04	3.24	0.00	0.00	0.00	0.00	0.00	0.00	1.00
75411	29	344	-10	0.40	0.07	2.85	0.00	0.00	0.00	0.00	0.00	0.00	1.00
75449	42	409	-33	0.47	-0.03	2.50	0.00	0.00	0.00	0.00	0.00	0.00	1.00
75489	64	421	5	0.17	0.11	1.86	0.00	0.00	0.00	0.00	0.00	0.00	1.00
75526	33	350	49	-0.09	0.17	1.07	0.00	0.00	0.00	0.00	0.00	0.00	1.00
75567	-20	243	35	-0.20	0.11	0.66	0.00	0.00	0.00	0.00	0.00	0.00	1.00
75607	-47	106	3	-0.32	0.03	0.54	0.00	0.00	0.00	0.00	0.00	0.00	1.00
75646	-56	-34	-2	-0.47	0.00	0.56	0.00	0.00	0.00	0.00	0.00	0.00	1.00
75687	-66	-305	7	-0.57	0.03	0.68	0.00	0.00	0.00	0.00	0.00	0.00	1.00
75727	-69	-493	15	-0.68	0.02	1.10	0.00	0.00	0.00	0.00	0.00	0.00	1.00
75768	-68	-500	5	-0.23	0.04	1.93	0.00	0.00	0.00	0.00	0.00	0.00	1.00
75808	-54	-500	-34	0.65	0.17	3.89	0.00	0.00	0.00	0.00	0.00	0.00	1.00
75848	-39	-494	-56	1.65	0.15	3.97	0.00	0.00	0.00	0.00	0.00	0.00	1.00
75889	-36	-101	-34	0.78	-0.02	3.01	0.00	0.00	0.00	0.00	0.00	0.00	1.00
75930	-17	-166	16	-0.35	-0.02	3.23	0.00	0.00	0.00	0.00	0.00	0.00	1.00
75970	7	-362	42	-0.16	-0.01	2.37	0.00	0.00	0.00	0.00	0.00	0.00	1.00
76011	-13	-475	15	0.04	0.08	2.04	0.00	0.00	0.00	0.00	0.00	0.00	1.00
76050	-41	-460	1	0.38	0.02	1.79	0.00	0.00	0.00	0.00	0.00	0.00	1.00
76091	-31	-351	-14	0.39	-0.03	1.50	0.00	0.00	0.00	0.00	0.00	0.00	1.00
76131	-9	-256	-24	0.23	-0.02	1.15	0.00	0.00	0.00	0.00	0.00	0.00	1.00
76172	10	-214	-24	0.08	0.01	0.68	0.00	0.00	0.00	0.00	0.00	0.00	1.00
76212	14	-208	-15	-0.01	-0.00	0.38	0.00	0.00	0.00	0.00	0.00	0.00	1.00
76253	12	-203	-2	0.00	0.01	0.17	0.00	0.00	0.00	0.00	0.00	0.00	1.00
76293	7	-188	14	-0.02	0.03	0.07	0.00	0.00	0.00	0.00	0.00	0.00	1.00
76332	15	-157	21	-0.02	-0.04	-0.19	0.00	0.00	0.00	0.00	0.00	0.00	1.00
76373	23	-125	11	-0.10	-0.03	-0.40	0.00	0.00	0.00	0.00	0.00	0.00	1.00
76415	21	-99	7	-0.15	-0.04	-0.54	0.00	0.00	0.00	0.00	0.00	0.00	1.00
76455	9	-90	14	-0.22	-0.04	-0.63	0.00	0.00	0.00	0.00	0.00	0.00	1.00
76496	-2	-81	27	-0.20	-0.06	-0.76	0.00	0.00	0.00	0.00	0.00	0.00	1.00
76537	-12	-60	30	-0.25	-0.05	-0.78	0.00	0.00	0.00	0.00	0.00	0.00	1.00
76578	-9	-39	25	-0.26	-0.06	-0.82	0.00	0.00	0.00	0.00	0.00	0.00	1.00
76620	-1	-13	17	-0.29	-0.06	-0.79	0.00	0.00	0.00	0.00	0.00	0.00	1.00
76661	9	8	1	-0.28	-0.06	-0.74	0.00	0.00	0.00	0.00	0.00	0.00	1.00
76702	12	38	-2	-0.25	-0.07	-0.67	0.00	0.00	0.00	0.00	0.00	0.00	1.00
76742	13	67	-6	-0.22	-0.06	-0.57	0.00	0.00	0.00	0.00	0.00	0.00	1.00
76781	10	90	-14	-0.21	-0.07	-0.47	0.00	0.00	0.00	0.00	0.00	0.00	1.00
76823	7	99	-14	-0.18	-0.06	-0.34	0.00	0.00	0.00	0.00	0.00	0.00	1.00
76863	-3	114	-11	-0.10	-0.05	-0.17	0.00	0.00	0.00	0.00	0.00	0.00	1.00
76905	-9	139	-4	-0.04	-0.07	0.02	0.00	0.00	0.00	0.00	0.00	0.00	1.00
76946	-6	173	11	0.08	-0.09	0.29	0.00	0.00	0.00	0.00	0.00	0.00	1.00
76986	2	228	26	0.21	-0.10	0.49	0.00	0.00	0.00	0.00	0.00	0.00	1.00
77025	16	319	32	0.34	-0.12	0.75	0.00	0.00	0.00	0.00	0.00	0.00	1.00
77063	28	412	22	0.31	-0.14	1.13	0.00	0.00	0.00	0.00	0.00	0.00	1.00
77103	44	437	-12	0.14	-0.12	1.82	0.00	0.00	0.00	0.00	0.00	0.00	1.00
77143	56	420	-46	0.18	-0.10	2.11	0.00	0.00	0.00	0.00	0.00	0.00	1.00
77183	22	370	-83	0.02	0.11	2.49	0.00	0.00	0.00	0.00	0.00	0.00	1.00
77223	-32	303	-79	0.22	0.05	2.94	0.00	0.00	0.00	0.00	0.00	0.00	1.00
77263	-23	326	-26	0.51	-0.09	3.21	0.00	0.00	0.00	0.00	0.00	0.00	1.00
77304	31	395	54	0.46	-0.06	3.56	0.00	0.00	0.00	0.00	0.00	0.00	1.00
77343	50	409	106	0.32	0.06	3.61	0.00	0.00	0.00	0.00	0.00	0.00	1.00
77382	46	370	82	0.22	0.14	3.18	0.00	0.00	0.00	0.00	0.00	0.00	1.00
77420	37	337	-7	0.35	0.03	2.95	0.00	0.00	0.00	0.00	0.00	0.00	1.00
77460	68	351	-55	0.58	-0.02	2.55	0.00	0.00	0.00	0.00	0.00	0.00	1.00
77499	80	401	-47	0.37	0.20	2.35	0.00	0.00	0.00	0.00	0.00	0.00	1.00
77538	40	347	14	0.09	0.10	1.48	0.00	0.00	0.00	0.00	0.00	0.00	1.00
77576	12	246	41	-0.18	0.07	0.98	0.00	0.00	0.00	0.00	0.00	0.00	1.00
77615	-18	90	5	-0.34	0.04	0.72	0.00	0.00	0.00	0.00	0.00	0.00	1.00
77654	-45	-66	-38	-0.24	0.03	0.72	0.00	0.00	0.00	0.00	0.00	0.00	1.00
77694	-61	-206	-16	-0.41	0.03	0.87	0.00	0.00	0.00	0.00	0.00	0.00	1.00
77734	-70	-428	25	-0.54	0.05	1.21	0.00	0.00	0.00	0.00	0.00	0.00	1.00
77773	-82	-500	44	-0.20	-0.01	1.91	0.00	0.00	0.00	0.00	0.00	0.00	1.00
77812	-75	-500	29	0.44	0.20	3.30	0.00	0.00	0.00	0.00	0.00	0.00	1.00
77852	-92	-500	-16	0.91	0.13	3.84	0.00	0.00	0.00	0.00	0.00	0.00	1.00
77891	-49	-274	-24	0.86	-0.04	3.20	0.00	0.00	0.00	0.00	0.00	0.00	1.00
77931	-34	-162	-15	0.11	0.05	3.27	0.00	0.00	0.00	0.00	0.00	0.00	1.00
77971	-18	-281	22	-0.14	-0.00	2.65	0.00	0.00	0.00	0.00	0.00	0.00	1.00
78010	-17	-397	16	-0.00	0.06	2.18	0.00	0.00	0.00	0.00	0.00	0.00	1.00
78050	-43	-439	-29	0.15	0.08	2.01	0.00	0.00	0.00	0.00	0.00	0.00	1.00
78091	-49	-404	-52	0.33	-0.01	1.69	0.00	0.00	0.00	0.00	0.00	0.00	1.00
78132	-25	-317	-39	0.30	-0.05	1.33	0.00	0.00	0.00	0.00	0.00	0.00	1.00
78173	1	-255	-22	0.16	-0.05	0.95	0.00	0.00	0.00	0.00	0.00	0.00	1.00
78214	18	-232	-6	0.06	-0.03	0.55	0.00	0.00	0.00	0.00	0.00	0.00	1.00
78257	16	-214	17	0.05	0.02	0.18	0.00	0.00	0.00	0.00	0.00	0.00	1.00
78298	4	-196	33	0.06	-0.00	0.05	0.00	0.00	0.00	0.00	0.00	0.00	1.00
78339	-12	-150	53	0.04	-0.00	-0.08	0.00	0.00	0.00	0.00	0.00	0.00	1.00
78382	-21	-125	62	-0.06	-0.00	-0.28	0.00	0.00	0.00	0.00	0.00	0.00	1.00
78424	-29	-98	66	-0.07	-0.03	-0.46	0.00	0.00	0.00	0.00	0.00	0.00	1.00
78467	-25	-81	61	-0.13	-0.04	-0.57	0.00	0.00	0.00	0.00	0.00	0.00	1.00
78510	-14	-55	35	-0.16	-0.02	-0.73	0.00	0.00	0.00	0.00	0.00	0.00	1.00
78552	2	-35	-2	-0.13	-0.03	-0.79	0.00	0.00	0.00	0.00	0.00	0.00	1.00
78594	11	2	-31	-0.16	-0.03	-0.84	0.00	0.00	0.00	0.00	0.00	0.00	1.00
78637	13	19	-33	-0.16	-0.04	-0.84	0.00	0.00	0.00	0.00	0.00	0.00	1.00
78679	3	39	-15	-0.15	-0.04	-0.81	0.00	0.00	0.00	0.00	0.00	0.00	1.00
78719	-6	55	1	-0.14	-0.04	-0.76	0.00	0.00	0.00	0.00	0.00	0.00	1.00
78760	-7	69	9	-0.12	-0.04	-0.67	0.00	0.00	0.00	0.00	0.00	0.00	1.00
78801	1	89	4	-0.11	-0.04	-0.56	0.00	0.00	0.00	0.00	0.00	0.00	1.00
78841	12	102	-2	-0.11	-0.05	-0.40	0.00	0.00	0.00	0.00	0.00	0.00	1.00
78882	21	111	-5	-0.09	-0.06	-0.23	0.00	0.00	0.00	0.00	0.00	0.00	1.00
78923	25	124	-8	-0.07	-0.08	-0.02	0.00	0.00	0.00	0.00	0.00	0.00	1.00
78964	21	138	-8	-0.03	-0.09	0.21	0.00	0.00	0.00	0.00	0.00	0.00	1.00
79004	14	164	-3	0.04	-0.10	0.47	0.00	0.00	0.00	0.00	0.00	0.00	1.00
79045	13	194	2	0.18	-0.09	0.79	0.00	0.00	0.00	0.00	0.00	0.00	1.00
79083	18	260	3	0.25	-0.09	1.13	0.00	0.00	0.00	0.00	0.00	0.00	1.00
79122	20	330	-16	0.28	-0.07	1.39	0.00	0.00	0.00	0.00	0.00	0.00	1.00
79162	14	377	-40	0.14	-0.09	1.80	0.00	0.00	0.00	0.00	0.00	0.00	1.00
79202	-6	342	-61	0.07	-0.07	2.35	0.00	0.00	0.00	0.00	0.00	0.00	1.00
79242	-3	310	-57	0.17	-0.17	2.76	0.00	0.00	0.00	0.00	0.00	0.00	1.00
79283	-17	332	-23	0.54	-0.05	3.46	0.00	0.00	0.00	0.00	0.00	0.00	1.00
79323	-24	452	-4	0.60	-0.04	3.60	0.00	0.00	0.00	0.00	0.00	0.00	1.00
79363	-44	500	27	0.31	-0.06	3.99	0.00	0.00	0.00	0.00	0.00	0.00	1.00
79403	2	418	67	0.13	-0.14	3.79	0.00	0.00	0.00	0.00	0.00	0.00	1.00
79442	54	326	80	0.17	0.05	3.36	0.00	0.00	0.00	0.00	0.00	0.00	1.00
79482	45	310	22	0.46	0.11	2.86	0.00	0.00	0.00	0.00	0.00	0.00	1.00
79521	24	391	2	0.50	0.08	2.50	0.00	0.00	0.00	0.00	0.00	0.00	1.00
79560	40	425	19	0.21	-0.03	1.81	0.00	0.00	0.00	0.00	0.00	0.00	1.00
79599	61	347	42	-0.11	0.08	1.07	0.00	0.00	0.00	0.00	0.00	0.00	1.00
79638	28	239	24	-0.16	0.11	0.66	0.00	0.00	0.00	0.00	0.00	0.00	1.00
79678	-18	116	-24	-0.25	0.03	0.53	0.00	0.00	0.00	0.00	0.00	0.00	1.00
79718	-43	-36	-58	-0.38	0.00	0.51	0.00	0.00	0.00	0.00	0.00	0.00	1.00
