Time	Gx	Gy	Gz	Ax	Ay	Az	Clean	Deadlift	Squat	Rest	RowLeft	RowRight	Swing			
3	-0	0	0	0.03	-0.04	1.00	0.03	0.03	0.06	0.86	0.01	0.01	0.00
42	-0	0	0	0.03	-0.04	1.01	0.03	0.03	0.06	0.86	0.01	0.01	0.00
81	-0	0	0	0.04	-0.04	1.00	0.03	0.03	0.06	0.86	0.01	0.01	0.00
119	-0	0	0	0.03	-0.04	1.00	0.03	0.03	0.06	0.86	0.01	0.01	0.00
159	-0	0	0	0.03	-0.04	1.00	0.03	0.03	0.06	0.86	0.01	0.01	0.00
199	-0	0	0	0.04	-0.04	1.00	0.03	0.03	0.06	0.86	0.01	0.01	0.00
241	-0	0	0	0.03	-0.04	1.00	0.03	0.03	0.06	0.86	0.01	0.01	0.00
281	-0	0	0	0.03	-0.04	1.00	0.03	0.03	0.06	0.86	0.01	0.01	0.00
321	-0	1	0	0.03	-0.04	1.00	0.03	0.03	0.06	0.86	0.01	0.01	0.00
361	-0	1	0	0.03	-0.04	1.00	0.03	0.03	0.06	0.86	0.01	0.01	0.00
403	-0	0	0	0.04	-0.04	1.00	0.03	0.03	0.06	0.86	0.01	0.01	0.00
444	-0	0	0	0.03	-0.04	1.00	0.03	0.03	0.06	0.86	0.01	0.01	0.00
483	-0	1	0	0.03	-0.04	1.00	0.03	0.03	0.06	0.86	0.01	0.01	0.00
524	-0	0	0	0.04	-0.04	1.00	0.03	0.03	0.06	0.86	0.01	0.01	0.00
562	-0	0	0	0.03	-0.04	1.00	0.03	0.03	0.06	0.86	0.01	0.01	0.00
602	-0	0	0	0.03	-0.04	1.00	0.03	0.03	0.06	0.86	0.01	0.01	0.00
643	-0	0	0	0.03	-0.04	1.00	0.03	0.03	0.06	0.86	0.01	0.01	0.00
684	-0	0	0	0.03	-0.04	1.00	0.03	0.03	0.06	0.86	0.01	0.01	0.00
725	-0	0	0	0.03	-0.04	1.00	0.03	0.03	0.06	0.86	0.01	0.01	0.00
766	-0	0	0	0.03	-0.04	1.00	0.03	0.03	0.06	0.86	0.01	0.01	0.00
807	-0	0	0	0.03	-0.04	1.00	0.03	0.03	0.06	0.86	0.01	0.01	0.00
848	-0	1	0	0.03	-0.04	1.00	0.03	0.03	0.06	0.86	0.01	0.01	0.00
888	-0	0	0	0.03	-0.04	1.00	0.03	0.03	0.06	0.86	0.01	0.01	0.00
928	-0	0	0	0.03	-0.04	1.00	0.03	0.03	0.06	0.86	0.01	0.01	0.00
968	-0	1	0	0.03	-0.04	1.00	0.03	0.03	0.06	0.86	0.01	0.01	0.00
1010	-0	0	0	0.03	-0.04	1.00	0.03	0.03	0.06	0.86	0.01	0.01	0.00
1052	-0	1	0	0.04	-0.04	1.00	0.03	0.03	0.06	0.86	0.01	0.01	0.00
1092	-0	1	0	0.04	-0.04	1.00	0.03	0.03	0.06	0.86	0.01	0.01	0.00
1132	-0	0	0	0.04	-0.04	1.00	0.03	0.03	0.06	0.86	0.01	0.01	0.00
1173	-0	1	0	0.04	-0.04	1.00	0.03	0.03	0.06	0.86	0.01	0.01	0.00
1213	-0	0	0	0.04	-0.04	1.00	0.03	0.03	0.06	0.86	0.01	0.01	0.00
1254	-0	0	0	0.03	-0.04	1.00	0.03	0.03	0.06	0.86	0.01	0.01	0.00
1294	-0	0	0	0.03	-0.04	1.01	0.03	0.03	0.06	0.86	0.01	0.01	0.00
1334	-0	0	0	0.04	-0.04	1.00	0.03	0.03	0.06	0.86	0.01	0.01	0.00
1375	-0	0	0	0.03	-0.04	1.00	0.03	0.03	0.06	0.86	0.01	0.01	0.00
1415	-0	1	0	0.03	-0.04	1.01	0.03	0.03	0.06	0.86	0.01	0.01	0.00
1456	-0	0	0	0.03	-0.04	1.00	0.03	0.03	0.06	0.86	0.01	0.01	0.00
1496	-0	1	0	0.03	-0.04	1.00	0.03	0.03	0.06	0.86	0.01	0.01	0.00
1536	-0	0	0	0.04	-0.04	1.00	0.03	0.03	0.06	0.86	0.01	0.01	0.00
1577	-0	0	0	0.03	-0.04	1.00	0.03	0.03	0.06	0.86	0.01	0.01	0.00
1617	-0	0	0	0.03	-0.04	1.00	0.03	0.03	0.06	0.86	0.01	0.01	0.00
1657	-0	0	0	0.04	-0.04	1.01	0.03	0.03	0.06	0.86	0.01	0.01	0.00
1698	-0	0	0	0.03	-0.04	1.00	0.03	0.03	0.06	0.86	0.01	0.01	0.00
1738	-0	0	0	0.03	-0.04	1.00	0.03	0.03	0.06	0.86	0.01	0.01	0.00
1778	-0	0	0	0.03	-0.04	1.00	0.03	0.03	0.06	0.86	0.01	0.01	0.00
1819	-0	0	0	0.03	-0.04	1.00	0.03	0.03	0.06	0.86	0.01	0.01	0.00
1859	-0	0	0	0.03	-0.04	1.00	0.03	0.03	0.06	0.86	0.01	0.01	0.00
1901	-0	0	0	0.03	-0.04	1.00	0.03	0.03	0.06	0.86	0.01	0.01	0.00
1942	-0	0	0	0.03	-0.04	1.00	0.03	0.03	0.06	0.86	0.01	0.01	0.00
1982	-0	0	0	0.03	-0.04	1.01	0.03	0.03	0.06	0.86	0.01	0.01	0.00
2022	-0	1	0	0.03	-0.04	1.01	0.03	0.03	0.06	0.86	0.01	0.01	0.00
2063	-0	0	0	0.03	-0.04	1.01	0.03	0.03	0.06	0.86	0.01	0.01	0.00
2103	-0	0	0	0.04	-0.04	1.00	0.03	0.03	0.06	0.86	0.01	0.01	0.00
2142	-0	0	0	0.03	-0.04	1.00	0.03	0.03	0.06	0.86	0.01	0.01	0.00
2181	-0	0	0	0.03	-0.04	1.01	0.03	0.03	0.06	0.86	0.01	0.01	0.00
2220	-0	0	0	0.03	-0.04	1.01	0.03	0.03	0.06	0.86	0.01	0.01	0.00
2261	-0	0	0	0.03	-0.04	1.00	0.03	0.03	0.06	0.86	0.01	0.01	0.00
2301	-0	0	0	0.03	-0.04	1.00	0.03	0.03	0.06	0.86	0.01	0.01	0.00
2340	-0	0	0	0.03	-0.04	1.00	0.03	0.03	0.06	0.86	0.01	0.01	0.00
2383	-0	0	0	0.03	-0.04	1.00	0.03	0.03	0.06	0.86	0.01	0.01	0.00
2423	-0	0	0	0.03	-0.04	1.00	0.03	0.03	0.06	0.86	0.01	0.01	0.00
2464	-0	1	0	0.04	-0.04	1.00	0.03	0.03	0.06	0.86	0.01	0.01	0.00
2504	-0	0	0	0.04	-0.04	1.00	0.03	0.03	0.06	0.86	0.01	0.01	0.00
2544	-0	0	0	0.03	-0.04	1.00	0.03	0.03	0.06	0.86	0.01	0.01	0.00
2585	-0	0	0	0.04	-0.04	1.00	0.03	0.03	0.06	0.86	0.01	0.01	0.00
2626	-0	0	0	0.04	-0.04	1.00	0.03	0.03	0.06	0.86	0.01	0.01	0.00
2667	-0	1	0	0.03	-0.04	1.00	0.03	0.03	0.06	0.86	0.01	0.01	0.00
2707	-0	0	0	0.03	-0.04	1.00	0.03	0.03	0.06	0.86	0.01	0.01	0.00
2747	-0	1	0	0.03	-0.04	1.00	0.03	0.03	0.06	0.86	0.01	0.01	0.00
2787	-0	0	0	0.03	-0.04	1.00	0.03	0.03	0.06	0.86	0.01	0.01	0.00
2827	-0	0	0	0.03	-0.04	1.00	0.03	0.03	0.06	0.86	0.01	0.01	0.00
2869	-0	1	0	0.04	-0.04	1.01	0.03	0.03	0.06	0.86	0.01	0.01	0.00
2909	-0	0	0	0.03	-0.04	1.00	0.03	0.03	0.06	0.86	0.01	0.01	0.00
2949	-0	0	0	0.03	-0.04	1.00	0.03	0.03	0.06	0.86	0.01	0.01	0.00
2989	-0	0	0	0.03	-0.04	1.01	0.03	0.03	0.06	0.86	0.01	0.01	0.00
3029	-0	1	0	0.03	-0.04	1.00	0.03	0.03	0.06	0.86	0.01	0.01	0.00
3070	-0	0	0	0.04	-0.04	1.00	0.03	0.03	0.06	0.86	0.01	0.01	0.00
3110	-0	0	0	0.03	-0.04	1.00	0.03	0.03	0.06	0.86	0.01	0.01	0.00
3148	-0	0	0	0.03	-0.04	1.00	0.03	0.03	0.06	0.86	0.01	0.01	0.00
3189	-0	0	0	0.03	-0.04	1.00	0.03	0.03	0.06	0.86	0.01	0.01	0.00
3229	-0	0	0	0.03	-0.04	1.00	0.03	0.03	0.06	0.86	0.01	0.01	0.00
3269	-0	1	0	0.04	-0.04	1.00	0.03	0.03	0.06	0.86	0.01	0.01	0.00
3309	-0	0	0	0.04	-0.04	1.00	0.03	0.03	0.06	0.86	0.01	0.01	0.00
3347	-0	0	0	0.03	-0.04	1.00	0.03	0.03	0.06	0.86	0.01	0.01	0.00
3386	-0	0	0	0.03	-0.04	1.00	0.03	0.03	0.06	0.86	0.01	0.01	0.00
3426	-0	0	0	0.03	-0.04	1.00	0.03	0.03	0.06	0.86	0.01	0.01	0.00
3464	-0	0	0	0.03	-0.04	1.00	0.03	0.03	0.06	0.86	0.01	0.01	0.00
3506	-0	0	0	0.04	-0.04	1.00	0.03	0.03	0.06	0.86	0.01	0.01	0.00
3545	-0	1	0	0.03	-0.04	1.00	0.03	0.03	0.06	0.86	0.01	0.01	0.00
3586	-0	0	0	0.03	-0.04	1.00	0.03	0.03	0.06	0.86	0.01	0.01	0.00
3624	-0	0	0	0.03	-0.04	1.00	0.03	0.03	0.06	0.86	0.01	0.01	0.00
3664	-0	0	0	0.03	-0.04	1.00	0.03	0.03	0.06	0.86	0.01	0.01	0.00
3704	-0	0	0	0.03	-0.04	1.00	0.03	0.03	0.06	0.86	0.01	0.01	0.00
3744	-0	0	0	0.03	-0.04	1.00	0.03	0.03	0.06	0.86	0.01	0.01	0.00
3785	-0	0	0	0.04	-0.04	1.00	0.03	0.03	0.06	0.86	0.01	0.01	0.00
3827	-0	0	0	0.03	-0.04	1.00	0.03	0.03	0.06	0.86	0.01	0.01	0.00
3868	-0	0	0	0.04	-0.04	1.00	0.03	0.03	0.06	0.86	0.01	0.01	0.00
3910	-0	1	0	0.03	-0.04	1.00	0.03	0.03	0.06	0.86	0.01	0.01	0.00
3951	-0	0	0	0.03	-0.04	1.00	0.03	0.03	0.06	0.86	0.01	0.01	0.00
3991	-0	0	0	0.03	-0.04	1.00	0.03	0.03	0.06	0.86	0.01	0.01	0.00
4031	-0	1	0	0.03	-0.04	1.00	0.03	0.03	0.06	0.86	0.01	0.01	0.00
4072	-0	0	0	0.03	-0.04	0.99	0.03	0.03	0.06	0.86	0.01	0.01	0.00
4113	-0	0	0	0.03	-0.04	1.01	0.03	0.03	0.06	0.86	0.01	0.01	0.00
4153	-0	1	0	0.03	-0.04	1.00	0.03	0.03	0.06	0.86	0.01	0.01	0.00
4193	-0	1	0	0.04	-0.04	1.00	0.03	0.03	0.06	0.86	0.01	0.01	0.00
4234	-0	0	0	0.03	-0.04	1.00	0.03	0.03	0.06	0.86	0.01	0.01	0.00
4275	-0	0	0	0.03	-0.04	1.00	0.03	0.03	0.06	0.86	0.01	0.01	0.00
4316	-0	0	0	0.03	-0.04	1.00	0.03	0.03	0.06	0.86	0.01	0.01	0.00
4356	-0	0	0	0.03	-0.04	1.00	0.03	0.03	0.06	0.86	0.01	0.01	0.00
4395	-0	1	0	0.03	-0.04	1.01	0.03	0.03	0.06	0.86	0.01	0.01	0.00
4436	-0	0	0	0.03	-0.04	1.00	0.03	0.03	0.06	0.86	0.01	0.01	0.00
4478	-0	0	0	0.03	-0.04	1.00	0.03	0.03	0.06	0.86	0.01	0.01	0.00
4518	-0	1	0	0.03	-0.04	1.00	0.03	0.03	0.06	0.86	0.01	0.01	0.00
4558	-0	0	0	0.03	-0.04	1.00	0.03	0.03	0.06	0.86	0.01	0.01	0.00
4598	-0	0	0	0.03	-0.04	1.00	0.03	0.03	0.06	0.86	0.01	0.01	0.00
4639	-0	1	0	0.04	-0.04	1.01	0.03	0.03	0.06	0.86	0.01	0.01	0.00
4678	-0	0	0	0.03	-0.04	1.01	0.03	0.03	0.06	0.86	0.01	0.01	0.00
4719	-0	1	0	0.03	-0.04	1.00	0.03	0.03	0.06	0.86	0.01	0.01	0.00
4761	-0	0	0	0.03	-0.04	1.00	0.03	0.03	0.06	0.86	0.01	0.01	0.00
4801	-0	1	0	0.03	-0.04	1.00	0.03	0.03	0.06	0.86	0.01	0.01	0.00
4842	-0	0	0	0.03	-0.04	1.01	0.03	0.03	0.06	0.86	0.01	0.01	0.00
4883	-0	0	0	0.03	-0.04	1.00	0.03	0.03	0.06	0.86	0.01	0.01	0.00
4925	-0	0	0	0.03	-0.04	1.00	0.03	0.03	0.06	0.86	0.01	0.01	0.00
4965	-0	0	0	0.03	-0.04	1.00	0.03	0.03	0.06	0.86	0.01	0.01	0.00
5005	-1	1	0	0.03	-0.04	1.00	0.03	0.03	0.06	0.86	0.01	0.01	0.00
5045	-1	0	0	0.04	-0.04	0.98	0.03	0.03	0.06	0.86	0.01	0.01	0.00
5086	-0	1	0	0.03	-0.04	0.99	0.03	0.03	0.06	0.86	0.01	0.01	0.00
5128	-0	0	0	0.03	-0.04	1.00	0.03	0.03	0.06	0.86	0.01	0.01	0.00
5167	-0	0	0	0.03	-0.04	1.01	0.03	0.03	0.06	0.86	0.01	0.01	0.00
5207	-0	1	0	0.03	-0.04	1.01	0.03	0.03	0.06	0.86	0.01	0.01	0.00
5249	-0	1	0	0.03	-0.04	1.01	0.03	0.03	0.06	0.86	0.01	0.01	0.00
5290	-0	0	0	0.03	-0.04	1.00	0.03	0.03	0.06	0.86	0.01	0.01	0.00
5331	-0	1	0	0.03	-0.04	1.00	0.03	0.03	0.06	0.86	0.01	0.01	0.00
5371	-0	0	0	0.03	-0.04	1.01	0.03	0.03	0.06	0.86	0.01	0.01	0.00
5411	-0	0	0	0.03	-0.04	1.01	0.03	0.03	0.06	0.86	0.01	0.01	0.00
5452	-0	1	0	0.04	-0.04	1.00	0.03	0.03	0.06	0.86	0.01	0.01	0.00
5493	-0	0	0	0.03	-0.04	1.00	0.03	0.03	0.06	0.86	0.01	0.01	0.00
5533	-0	0	0	0.03	-0.04	1.00	0.03	0.03	0.06	0.86	0.01	0.01	0.00
5573	-0	1	0	0.03	-0.04	1.01	0.03	0.03	0.06	0.86	0.01	0.01	0.00
5614	-0	1	0	0.03	-0.04	1.01	0.03	0.03	0.06	0.86	0.01	0.01	0.00
5657	-0	1	0	0.04	-0.04	1.01	0.03	0.03	0.06	0.86	0.01	0.01	0.00
5698	-0	0	0	0.03	-0.04	1.00	0.03	0.03	0.06	0.86	0.01	0.01	0.00
5741	-0	1	0	0.03	-0.04	1.00	0.03	0.03	0.06	0.86	0.01	0.01	0.00
5783	-0	0	0	0.03	-0.04	1.00	0.04	0.03	0.06	0.86	0.01	0.01	0.00
5825	-0	0	0	0.03	-0.03	1.11	0.03	0.03	0.06	0.86	0.01	0.01	0.00
5867	0	1	0	0.04	-0.04	1.01	0.03	0.03	0.06	0.86	0.01	0.01	0.00
5907	-0	1	0	0.03	-0.04	0.97	0.03	0.03	0.06	0.86	0.01	0.01	0.00
5949	-1	0	0	0.03	-0.04	0.99	0.03	0.03	0.06	0.86	0.01	0.01	0.00
5989	-0	1	0	0.04	-0.04	1.00	0.04	0.03	0.06	0.86	0.01	0.01	0.00
6029	0	1	0	0.03	-0.04	1.01	0.04	0.03	0.06	0.86	0.01	0.01	0.00
6069	-0	0	0	0.03	-0.04	1.01	0.03	0.03	0.06	0.86	0.01	0.01	0.00
6110	-0	0	0	0.04	-0.04	1.01	0.03	0.03	0.06	0.86	0.01	0.01	0.00
6151	-0	1	0	0.03	-0.04	1.01	0.03	0.03	0.06	0.86	0.01	0.01	0.00
6189	-0	0	0	0.03	-0.04	1.01	0.04	0.03	0.06	0.86	0.01	0.01	0.00
6228	-0	1	0	0.03	-0.04	1.01	0.03	0.03	0.06	0.86	0.01	0.01	0.00
6267	-0	1	0	0.04	-0.04	1.00	0.03	0.03	0.06	0.86	0.01	0.01	0.00
6306	-1	0	0	0.03	-0.04	1.00	0.03	0.03	0.06	0.86	0.01	0.01	0.00
6345	-1	0	0	0.03	-0.04	1.00	0.03	0.03	0.06	0.86	0.01	0.01	0.00
6384	-1	0	0	0.04	-0.04	1.02	0.04	0.03	0.06	0.86	0.01	0.01	0.00
6423	-1	1	0	0.04	-0.04	1.00	0.04	0.03	0.06	0.86	0.01	0.01	0.00
6461	-1	0	0	0.03	-0.04	1.01	0.03	0.03	0.06	0.86	0.01	0.01	0.00
6501	-1	0	0	0.04	-0.04	1.00	0.03	0.03	0.06	0.86	0.01	0.01	0.00
6540	-1	1	0	0.04	-0.04	1.01	0.03	0.03	0.06	0.86	0.01	0.01	0.00
6579	-0	1	0	0.04	-0.04	1.00	0.03	0.03	0.06	0.86	0.01	0.01	0.00
6618	-0	0	0	0.03	-0.04	1.00	0.03	0.03	0.06	0.86	0.01	0.01	0.00
6657	-0	0	0	0.03	-0.04	1.00	0.03	0.03	0.06	0.86	0.01	0.01	0.00
6696	-1	0	0	0.04	-0.04	1.00	0.04	0.03	0.06	0.86	0.01	0.01	0.00
6735	-1	0	0	0.03	-0.04	1.00	0.04	0.03	0.06	0.86	0.01	0.01	0.00
6775	-1	0	0	0.03	-0.04	1.01	0.04	0.03	0.06	0.86	0.01	0.01	0.00
6817	-0	0	0	0.04	-0.04	1.00	0.04	0.03	0.06	0.86	0.01	0.01	0.00
6859	-0	1	0	0.03	-0.04	1.00	0.03	0.03	0.06	0.86	0.01	0.01	0.00
6900	-0	0	0	0.03	-0.04	1.01	0.03	0.03	0.06	0.86	0.01	0.01	0.00
6939	-0	1	0	0.04	-0.04	1.00	0.03	0.03	0.06	0.86	0.01	0.01	0.00
6980	0	1	0	0.03	-0.04	1.00	0.04	0.03	0.06	0.86	0.01	0.01	0.00
7020	0	1	0	0.03	-0.04	0.98	0.03	0.03	0.06	0.86	0.01	0.01	0.00
7060	1	0	0	0.04	-0.04	1.01	0.04	0.03	0.06	0.86	0.01	0.01	0.00
7102	1	1	0	0.03	-0.04	1.00	0.04	0.03	0.06	0.86	0.01	0.01	0.00
7142	0	1	0	0.03	-0.04	1.01	0.04	0.03	0.06	0.86	0.01	0.01	0.00
7182	0	0	0	0.03	-0.04	1.00	0.04	0.03	0.06	0.86	0.01	0.01	0.00
7222	-0	1	0	0.03	-0.04	1.00	0.04	0.03	0.06	0.86	0.01	0.01	0.00
7264	-0	0	0	0.04	-0.04	1.00	0.03	0.03	0.06	0.86	0.01	0.01	0.00
7305	-1	1	0	0.03	-0.04	1.00	0.03	0.03	0.06	0.86	0.01	0.01	0.00
7345	-0	1	0	0.03	-0.04	1.00	0.04	0.03	0.06	0.86	0.01	0.01	0.00
7384	-0	0	0	0.04	-0.04	1.01	0.03	0.03	0.06	0.86	0.01	0.01	0.00
7425	-1	0	0	0.03	-0.04	1.01	0.03	0.03	0.06	0.86	0.01	0.01	0.00
7466	-1	1	0	0.04	-0.05	1.00	0.04	0.03	0.06	0.86	0.01	0.01	0.00
7509	-0	0	0	0.03	-0.04	1.00	0.04	0.03	0.06	0.86	0.01	0.01	0.00
7550	-0	0	0	0.03	-0.04	1.01	0.04	0.03	0.06	0.86	0.01	0.01	0.00
7592	-0	1	0	0.04	-0.04	1.00	0.04	0.03	0.06	0.86	0.01	0.01	0.00
7633	0	1	0	0.03	-0.04	1.00	0.04	0.03	0.06	0.86	0.01	0.01	0.00
7674	0	0	0	0.03	-0.04	1.00	0.03	0.03	0.06	0.86	0.01	0.01	0.00
7716	0	0	0	0.04	-0.04	1.00	0.03	0.03	0.06	0.86	0.01	0.01	0.00
7756	0	1	0	0.04	-0.04	1.00	0.03	0.03	0.06	0.86	0.01	0.01	0.00
7796	-0	0	0	0.03	-0.04	1.01	0.03	0.03	0.06	0.86	0.01	0.01	0.00
7836	-0	0	0	0.04	-0.04	1.00	0.03	0.03	0.06	0.86	0.01	0.01	0.00
7876	-0	1	0	0.03	-0.04	1.01	0.03	0.03	0.06	0.86	0.01	0.01	0.00
7919	-1	0	0	0.03	-0.03	1.00	0.03	0.03	0.06	0.86	0.01	0.01	0.00
7959	-1	0	0	0.04	-0.04	1.00	0.03	0.03	0.06	0.86	0.01	0.01	0.00
8000	-1	1	0	0.04	-0.04	1.01	0.03	0.03	0.06	0.86	0.01	0.01	0.00
8040	-1	0	0	0.03	-0.03	1.00	0.03	0.03	0.06	0.86	0.01	0.01	0.00
8081	-1	0	0	0.04	-0.05	0.99	0.03	0.03	0.06	0.86	0.01	0.01	0.00
8121	0	1	0	0.04	-0.05	1.00	0.03	0.03	0.06	0.86	0.01	0.01	0.00
8161	1	0	0	0.03	-0.03	1.02	0.03	0.03	0.06	0.86	0.01	0.01	0.00
8202	-1	-0	0	0.04	-0.04	1.00	0.03	0.03	0.06	0.86	0.01	0.01	0.00
8242	-0	1	0	0.04	-0.04	1.02	0.03	0.03	0.06	0.86	0.01	0.01	0.00
8282	0	1	0	0.03	-0.04	1.01	0.04	0.03	0.06	0.86	0.01	0.01	0.00
8323	-0	0	0	0.03	-0.04	1.02	0.03	0.03	0.06	0.86	0.01	0.01	0.00
8363	-0	0	0	0.04	-0.04	1.01	0.03	0.03	0.06	0.86	0.01	0.01	0.00
8404	-0	1	0	0.03	-0.04	1.00	0.04	0.03	0.06	0.86	0.01	0.01	0.00
8444	-0	0	0	0.03	-0.04	1.01	0.03	0.03	0.06	0.86	0.01	0.01	0.00
8484	-0	0	0	0.04	-0.04	1.00	0.03	0.03	0.06	0.86	0.01	0.01	0.00
8524	0	-1	7	0.01	-0.05	1.01	0.04	0.03	0.06	0.86	0.01	0.01	0.00
8564	0	-6	-5	0.06	-0.03	1.01	0.04	0.03	0.06	0.86	0.01	0.01	0.00
8606	-1	3	-1	0.10	-0.04	1.00	0.03	0.03	0.06	0.86	0.01	0.01	0.00
8646	-1	8	-0	-0.02	-0.05	1.00	0.03	0.03	0.06	0.86	0.01	0.01	0.00
8687	-1	-9	16	0.03	-0.07	1.01	0.03	0.03	0.06	0.86	0.01	0.01	0.00
8729	-5	-8	-17	0.07	0.01	1.00	0.03	0.03	0.06	0.86	0.01	0.01	0.00
8769	-3	-3	15	0.05	-0.10	1.01	0.04	0.03	0.06	0.85	0.01	0.01	0.00
8810	5	3	2	0.12	-0.05	1.00	0.04	0.03	0.06	0.86	0.01	0.01	0.00
8850	2	11	-3	-0.00	-0.01	1.01	0.03	0.03	0.06	0.87	0.01	0.01	0.00
8891	-4	-10	-5	-0.12	-0.05	1.02	0.03	0.03	0.06	0.87	0.01	0.01	0.00
8933	1	-46	-8	-0.15	-0.07	1.06	0.02	0.02	0.05	0.89	0.00	0.00	0.00
8975	4	-90	-8	-0.13	-0.03	1.20	0.01	0.02	0.03	0.94	0.00	0.00	0.00
9018	-25	-82	-42	-0.00	-0.12	1.71	0.01	0.02	0.05	0.91	0.00	0.00	0.00
9061	4	6	-53	0.05	-0.03	1.33	0.03	0.04	0.22	0.70	0.01	0.00	0.00
9100	-9	81	-26	-0.13	-0.07	1.37	0.04	0.05	0.51	0.39	0.01	0.00	0.00
9142	4	75	6	-0.08	-0.07	1.37	0.04	0.05	0.75	0.16	0.00	0.00	0.00
9183	5	68	18	0.02	-0.01	1.36	0.03	0.04	0.88	0.05	0.00	0.00	0.00
9225	-2	81	19	0.16	-0.01	1.35	0.02	0.03	0.94	0.02	0.00	0.00	0.00
9265	-2	116	16	0.22	-0.03	1.19	0.01	0.03	0.96	0.01	0.00	0.00	0.00
9305	3	129	17	0.20	-0.04	1.13	0.01	0.06	0.93	0.00	0.00	0.00	0.00
9346	10	108	25	0.17	-0.02	1.04	0.01	0.21	0.79	0.00	0.00	0.00	0.00
9385	15	61	27	0.19	-0.00	0.96	0.01	0.28	0.72	0.00	0.00	0.00	0.00
9426	12	11	26	0.26	0.01	0.89	0.01	0.20	0.80	0.00	0.00	0.00	0.00
9465	8	-18	23	0.37	0.03	0.84	0.01	0.31	0.68	0.00	0.00	0.00	0.00
9505	-9	-46	21	0.39	0.02	0.87	0.00	0.89	0.11	0.00	0.00	0.00	0.00
9546	-21	-102	25	0.34	0.01	0.89	0.00	0.98	0.02	0.00	0.00	0.00	0.00
9586	-22	-168	29	0.45	-0.05	0.96	0.00	1.00	0.00	0.00	0.00	0.00	0.00
9627	-26	-215	27	0.45	-0.03	1.11	0.00	1.00	0.00	0.00	0.00	0.00	0.00
9668	-36	-272	19	0.57	-0.06	1.37	0.00	1.00	0.00	0.00	0.00	0.00	0.00
9709	-40	-315	-4	0.67	-0.10	1.52	0.00	1.00	0.00	0.00	0.00	0.00	0.00
9750	-47	-338	-18	0.79	-0.12	1.57	0.00	1.00	0.00	0.00	0.00	0.00	0.00
9791	-46	-340	-21	0.85	-0.16	1.55	0.08	0.89	0.03	0.00	0.00	0.00	0.00
9833	-38	-345	-16	0.92	-0.16	1.42	0.70	0.20	0.10	0.00	0.00	0.00	0.01
9874	-37	-377	-8	0.91	-0.15	1.21	0.88	0.02	0.05	0.00	0.00	0.00	0.05
9915	-24	-369	-3	1.00	-0.14	0.89	0.93	0.00	0.03	0.00	0.00	0.00	0.05
9957	-23	-362	4	0.84	-0.10	0.48	0.95	0.00	0.02	0.00	0.00	0.00	0.03
9998	-32	-341	-10	0.61	-0.07	0.19	0.93	0.00	0.01	0.00	0.00	0.00	0.06
10039	-39	-315	-29	0.37	-0.03	-0.05	0.79	0.00	0.00	0.00	0.00	0.00	0.21
10083	-23	-320	-14	0.16	-0.08	-0.10	0.08	0.00	0.00	0.00	0.00	0.00	0.92
10125	-7	-291	6	0.22	-0.08	-0.28	0.00	0.00	0.00	0.00	0.00	0.00	1.00
10166	12	-197	8	0.17	0.00	-0.50	0.00	0.00	0.00	0.00	0.00	0.00	1.00
10206	23	-77	5	0.02	0.04	-0.65	0.00	0.00	0.00	0.00	0.00	0.00	1.00
10249	13	-21	19	-0.31	-0.01	-0.72	0.00	0.00	0.00	0.00	0.00	0.00	1.00
10291	5	-39	4	-0.47	-0.02	-0.82	0.00	0.00	0.00	0.00	0.00	0.00	1.00
10334	-7	-84	-22	-0.46	-0.05	-0.86	0.00	0.00	0.00	0.00	0.00	0.00	1.00
10378	-12	-93	-31	-0.35	-0.06	-0.92	0.00	0.00	0.00	0.00	0.00	0.00	1.00
10420	-1	-65	-14	-0.32	-0.06	-0.97	0.00	0.00	0.00	0.00	0.00	0.00	1.00
10463	9	7	-2	-0.25	-0.03	-0.99	0.00	0.00	0.00	0.00	0.00	0.00	1.00
10504	5	55	4	-0.22	-0.02	-0.91	0.00	0.00	0.00	0.00	0.00	0.00	1.00
10545	-1	58	4	-0.22	-0.04	-0.91	0.00	0.00	0.00	0.00	0.00	0.00	1.00
10587	1	17	-2	-0.07	-0.05	-0.89	0.00	0.00	0.00	0.00	0.00	0.00	1.00
10629	2	9	3	-0.01	-0.03	-1.06	0.00	0.00	0.00	0.00	0.00	0.00	1.00
10671	4	6	2	0.02	-0.06	-1.03	0.00	0.00	0.00	0.00	0.00	0.00	1.00
10711	-0	7	-0	-0.05	-0.06	-1.08	0.00	0.00	0.00	0.00	0.00	0.00	1.00
10753	-1	-1	-3	-0.07	-0.07	-1.04	0.00	0.00	0.00	0.00	0.00	0.00	1.00
10795	4	4	2	-0.09	-0.08	-1.05	0.00	0.00	0.00	0.00	0.00	0.00	1.00
10835	5	12	-1	-0.11	-0.09	-0.98	0.00	0.00	0.00	0.00	0.00	0.00	1.00
10877	6	10	-10	-0.14	-0.07	-0.95	0.00	0.00	0.00	0.00	0.00	0.00	1.00
10919	-4	4	-8	-0.13	-0.07	-0.85	0.00	0.00	0.00	0.00	0.00	0.00	1.00
10960	-5	2	-6	-0.14	-0.08	-0.78	0.00	0.00	0.00	0.00	0.00	0.00	1.00
11001	-7	2	-2	-0.11	-0.06	-0.67	0.00	0.00	0.00	0.00	0.00	0.00	1.00
11042	-5	10	-1	-0.10	-0.08	-0.59	0.00	0.00	0.00	0.00	0.00	0.00	1.00
11085	2	15	2	-0.07	-0.07	-0.50	0.00	0.00	0.00	0.00	0.00	0.00	1.00
11127	3	11	5	-0.04	-0.05	-0.47	0.00	0.01	0.00	0.00	0.00	0.00	0.99
11168	5	-9	6	-0.01	-0.04	-0.45	0.00	0.11	0.00	0.00	0.00	0.00	0.89
11210	-2	-19	17	0.01	-0.04	-0.53	0.00	0.65	0.00	0.00	0.00	0.00	0.35
11250	-7	-4	13	0.06	-0.04	-0.56	0.00	0.92	0.00	0.00	0.00	0.00	0.08
11292	-9	19	19	-0.05	-0.05	-0.67	0.00	0.97	0.00	0.00	0.00	0.00	0.03
11332	-7	21	22	-0.08	-0.06	-0.88	0.00	0.99	0.00	0.00	0.00	0.00	0.01
11373	-10	3	14	0.09	-0.01	-1.03	0.00	0.99	0.00	0.00	0.00	0.00	0.01
11415	-18	-2	14	0.09	-0.06	-1.28	0.00	0.99	0.00	0.00	0.00	0.00	0.01
11456	-17	-17	7	0.14	-0.02	-1.38	0.00	1.00	0.00	0.00	0.00	0.00	0.00
11498	-9	-8	9	0.02	0.02	-1.39	0.00	1.00	0.00	0.00	0.00	0.00	0.00
11538	2	-17	11	0.01	0.01	-1.30	0.00	1.00	0.00	0.00	0.00	0.00	0.00
11580	3	-14	19	-0.12	-0.05	-1.26	0.00	1.00	0.00	0.00	0.00	0.00	0.00
11622	2	-31	3	-0.10	-0.03	-1.22	0.00	1.00	0.00	0.00	0.00	0.00	0.00
11663	8	-23	4	-0.07	-0.05	-1.23	0.00	1.00	0.00	0.00	0.00	0.00	0.00
11705	12	-4	-6	-0.25	-0.00	-1.21	0.00	1.00	0.00	0.00	0.00	0.00	0.00
11746	4	-22	5	-0.16	-0.06	-1.31	0.00	1.00	0.00	0.00	0.00	0.00	0.00
11787	3	17	-12	-0.18	-0.06	-1.42	0.02	0.66	0.31	0.01	0.00	0.00	0.00
11828	7	31	-6	-0.20	-0.07	-1.54	0.03	0.37	0.56	0.03	0.00	0.00	0.00
11870	-2	41	-3	-0.17	-0.01	-1.57	0.01	0.74	0.24	0.01	0.00	0.00	0.00
11913	-7	40	1	-0.13	-0.01	-1.48	0.01	0.42	0.56	0.00	0.00	0.00	0.00
11954	-17	6	-17	-0.14	-0.02	-1.38	0.01	0.08	0.90	0.00	0.00	0.00	0.00
11997	-4	-3	-5	0.02	0.04	-1.31	0.01	0.04	0.94	0.00	0.00	0.00	0.00
12039	4	9	13	-0.02	-0.08	-1.20	0.01	0.02	0.97	0.00	0.00	0.00	0.00
12081	5	12	-0	0.01	-0.07	-1.18	0.02	0.02	0.95	0.01	0.00	0.00	0.00
12121	11	23	-10	0.03	-0.11	-1.17	0.02	0.06	0.88	0.03	0.00	0.00	0.00
12161	3	22	5	-0.01	-0.05	-1.20	0.03	0.09	0.78	0.10	0.00	0.00	0.00
12202	1	11	-9	0.05	-0.08	-1.16	0.03	0.12	0.66	0.18	0.00	0.00	0.00
12241	-2	9	3	0.05	-0.03	-1.14	0.03	0.08	0.77	0.12	0.00	0.00	0.00
12281	-1	1	-2	0.07	-0.04	-1.11	0.03	0.07	0.76	0.12	0.01	0.00	0.00
12323	-2	15	0	0.09	0.02	-1.02	0.03	0.08	0.75	0.12	0.01	0.00	0.00
12365	-4	18	-1	0.04	-0.03	-0.90	0.04	0.10	0.76	0.09	0.01	0.00	0.00
12408	-7	18	7	0.04	0.02	-0.69	0.04	0.18	0.69	0.09	0.00	0.00	0.00
12450	-14	16	-4	0.09	0.03	-0.60	0.04	0.10	0.79	0.05	0.01	0.00	0.00
12492	-10	15	-7	0.02	0.01	-0.45	0.03	0.05	0.87	0.03	0.02	0.00	0.00
12534	6	3	3	0.09	-0.05	-0.41	0.04	0.05	0.85	0.04	0.02	0.00	0.00
12575	20	14	14	0.09	-0.05	-0.49	0.03	0.03	0.89	0.03	0.02	0.00	0.00
12618	20	20	11	0.08	-0.00	-0.59	0.02	0.03	0.92	0.01	0.01	0.00	0.00
12661	3	6	-4	-0.06	0.01	-0.82	0.03	0.06	0.87	0.03	0.01	0.00	0.00
12703	-18	-35	1	-0.14	-0.00	-1.02	0.02	0.04	0.92	0.01	0.01	0.00	0.00
12746	-30	-54	4	-0.04	-0.01	-1.05	0.02	0.04	0.93	0.01	0.00	0.00	0.00
12790	-28	-31	-12	-0.03	-0.06	-0.97	0.02	0.03	0.94	0.00	0.00	0.00	0.00
12834	-3	10	-20	-0.10	-0.04	-0.83	0.01	0.02	0.96	0.00	0.00	0.00	0.00
12878	11	12	-12	-0.14	0.01	-0.68	0.02	0.02	0.96	0.01	0.00	0.00	0.00
12920	4	4	-4	-0.05	-0.03	-0.46	0.02	0.02	0.95	0.01	0.00	0.00	0.00
12962	16	6	-1	0.12	-0.06	-0.30	0.02	0.03	0.93	0.02	0.00	0.00	0.00
13003	23	16	-18	0.02	-0.03	-0.37	0.02	0.05	0.86	0.07	0.00	0.00	0.00
13043	18	-17	6	0.01	-0.02	-0.35	0.02	0.09	0.76	0.13	0.00	0.00	0.00
13084	15	-25	24	0.12	-0.06	-0.44	0.02	0.15	0.68	0.14	0.00	0.00	0.00
13125	6	-14	-2	0.00	-0.05	-0.77	0.02	0.44	0.42	0.12	0.00	0.00	0.00
13165	0	17	-16	0.17	-0.07	-0.84	0.02	0.26	0.60	0.12	0.00	0.00	0.00
13206	6	53	5	0.00	-0.04	-1.20	0.02	0.14	0.78	0.06	0.00	0.00	0.00
13247	-12	20	15	-0.00	-0.03	-1.40	0.02	0.09	0.87	0.02	0.00	0.00	0.00
13288	-29	-7	4	0.22	-0.14	-1.43	0.02	0.04	0.92	0.02	0.00	0.00	0.00
13329	-10	10	-6	0.00	-0.13	-1.74	0.02	0.02	0.95	0.01	0.01	0.00	0.00
13370	-16	10	16	0.24	-0.04	-1.45	0.02	0.02	0.94	0.01	0.01	0.00	0.00
13411	-10	43	17	0.28	-0.03	-1.26	0.02	0.02	0.95	0.01	0.01	0.00	0.00
13453	-12	33	-5	0.27	-0.03	-1.23	0.02	0.02	0.93	0.01	0.01	0.00	0.00
13495	9	22	-9	0.32	-0.04	-1.11	0.03	0.02	0.92	0.02	0.01	0.00	0.00
13536	55	-17	3	0.21	0.01	-1.29	0.02	0.02	0.94	0.00	0.02	0.00	0.00
13577	17	-37	55	0.20	-0.03	-1.42	0.02	0.01	0.94	0.00	0.03	0.00	0.00
13618	17	7	-5	0.33	-0.11	-1.37	0.01	0.01	0.97	0.00	0.01	0.00	0.00
13659	-2	68	-28	0.21	-0.05	-1.44	0.02	0.18	0.78	0.01	0.00	0.00	0.00
13699	-21	81	-21	0.30	-0.12	-1.29	0.02	0.24	0.73	0.00	0.00	0.00	0.00
13741	-3	79	-10	0.31	-0.07	-1.24	0.02	0.27	0.71	0.00	0.00	0.00	0.00
13781	-19	45	11	0.45	-0.10	-1.17	0.01	0.05	0.93	0.00	0.00	0.00	0.00
13824	-16	40	3	0.51	-0.09	-1.14	0.00	0.00	0.99	0.00	0.00	0.00	0.00
13865	-30	32	-5	0.50	-0.07	-1.19	0.00	0.00	0.99	0.00	0.01	0.00	0.00
13905	-10	31	9	0.56	-0.09	-1.14	0.00	0.00	0.98	0.00	0.01	0.00	0.00
13946	19	43	9	0.49	-0.04	-1.19	0.00	0.00	0.97	0.00	0.02	0.00	0.00
13986	27	16	20	0.38	-0.04	-1.08	0.00	0.00	0.95	0.00	0.04	0.00	0.00
14026	21	-6	9	0.46	-0.07	-0.88	0.00	0.00	0.96	0.00	0.03	0.00	0.00
14067	14	-15	-4	0.40	-0.06	-0.70	0.00	0.00	0.97	0.00	0.02	0.00	0.00
14106	-6	-20	-9	0.32	-0.07	-0.60	0.00	0.00	0.98	0.00	0.01	0.00	0.00
14148	-15	-23	-29	0.29	-0.10	-0.42	0.00	0.00	0.96	0.00	0.03	0.00	0.00
14189	-2	-21	-31	0.20	-0.11	-0.36	0.01	0.03	0.95	0.00	0.01	0.00	0.00
14231	10	-1	-11	0.22	-0.07	-0.37	0.02	0.19	0.79	0.00	0.01	0.00	0.00
14274	19	14	3	0.11	-0.07	-0.47	0.02	0.44	0.54	0.00	0.00	0.00	0.00
14314	22	17	11	0.05	-0.03	-0.66	0.02	0.14	0.84	0.00	0.00	0.00	0.00
14354	19	-2	10	0.07	-0.04	-0.86	0.01	0.01	0.97	0.00	0.01	0.00	0.00
14395	11	-25	21	0.12	-0.02	-1.01	0.00	0.00	0.97	0.00	0.02	0.00	0.00
14435	-4	-33	11	0.33	-0.07	-1.03	0.00	0.00	0.99	0.00	0.01	0.00	0.00
14476	1	2	-1	0.37	-0.05	-1.02	0.00	0.01	0.98	0.00	0.01	0.00	0.00
14517	0	38	15	0.28	-0.13	-0.96	0.00	0.01	0.98	0.00	0.00	0.00	0.00
14558	-3	50	12	0.31	-0.16	-0.89	0.00	0.01	0.99	0.00	0.00	0.00	0.00
14599	-14	39	-17	0.29	-0.18	-0.83	0.00	0.01	0.99	0.00	0.00	0.00	0.00
14640	-15	9	-35	0.26	-0.17	-0.77	0.01	0.06	0.93	0.00	0.00	0.00	0.00
14682	-13	-21	-27	0.25	-0.14	-0.70	0.01	0.19	0.80	0.00	0.00	0.00	0.00
14724	2	-31	-12	0.24	-0.09	-0.58	0.01	0.29	0.71	0.00	0.00	0.00	0.00
14767	19	-23	-7	0.25	-0.09	-0.49	0.00	0.20	0.79	0.00	0.00	0.00	0.00
14809	30	-20	10	0.20	-0.06	-0.45	0.00	0.21	0.79	0.00	0.00	0.00	0.00
14851	11	-21	13	0.26	-0.00	-0.47	0.00	0.01	0.99	0.00	0.00	0.00	0.00
14891	-10	-24	11	0.20	-0.05	-0.52	0.00	0.00	1.00	0.00	0.00	0.00	0.00
14932	-9	-22	1	0.25	-0.05	-0.61	0.00	0.01	0.99	0.00	0.00	0.00	0.00
14974	-6	-13	3	0.22	-0.07	-0.81	0.00	0.00	0.99	0.00	0.00	0.00	0.00
15015	8	0	16	0.31	-0.09	-0.94	0.00	0.01	0.99	0.00	0.00	0.00	0.00
15056	6	16	10	0.34	-0.07	-1.02	0.01	0.01	0.98	0.00	0.00	0.00	0.00
15096	-7	-13	3	0.34	-0.17	-1.12	0.01	0.02	0.97	0.00	0.00	0.00	0.00
15137	-4	-28	5	0.34	-0.10	-1.23	0.02	0.08	0.90	0.00	0.01	0.00	0.00
15178	-5	-64	4	0.43	-0.07	-1.34	0.02	0.32	0.66	0.00	0.00	0.00	0.00
15219	-4	-20	10	0.42	-0.12	-1.36	0.02	0.37	0.61	0.00	0.00	0.00	0.00
15260	9	-1	12	0.37	-0.12	-1.36	0.01	0.44	0.54	0.00	0.00	0.00	0.00
15302	6	2	-6	0.34	-0.10	-1.35	0.01	0.06	0.93	0.00	0.00	0.00	0.00
15343	-3	-49	-10	0.20	-0.12	-1.34	0.01	0.01	0.98	0.00	0.00	0.00	0.00
15385	10	-89	2	0.25	-0.20	-1.48	0.00	0.00	0.99	0.00	0.00	0.00	0.00
15425	31	-57	2	0.30	-0.16	-1.53	0.01	0.02	0.98	0.00	0.00	0.00	0.00
15467	-11	0	-6	0.05	-0.11	-1.50	0.01	0.02	0.97	0.00	0.00	0.00	0.00
15509	-18	8	-24	0.03	-0.18	-1.41	0.00	0.01	0.99	0.00	0.00	0.00	0.00
15551	-8	10	-16	0.09	-0.11	-1.32	0.00	0.00	0.99	0.00	0.00	0.00	0.00
15592	-5	-7	1	0.18	-0.18	-1.28	0.00	0.00	0.97	0.00	0.02	0.00	0.00
15632	1	2	7	0.19	-0.20	-1.22	0.01	0.01	0.88	0.00	0.09	0.00	0.00
15671	-9	9	-9	0.16	-0.16	-1.19	0.02	0.03	0.84	0.00	0.11	0.00	0.00
15712	-22	9	-6	0.15	-0.19	-1.15	0.04	0.23	0.63	0.01	0.08	0.01	0.00
15752	-16	11	-0	0.16	-0.16	-1.14	0.02	0.67	0.12	0.02	0.03	0.13	0.00
15793	-5	25	-4	0.15	-0.08	-1.10	0.01	0.67	0.03	0.06	0.01	0.22	0.00
15833	-12	42	7	0.23	-0.02	-1.11	0.02	0.56	0.11	0.11	0.03	0.16	0.00
15872	-22	52	3	0.17	-0.09	-1.07	0.01	0.84	0.06	0.04	0.00	0.05	0.00
15912	-5	46	9	0.24	-0.05	-1.02	0.01	0.91	0.06	0.01	0.00	0.01	0.00
15951	10	37	-8	0.23	-0.03	-0.87	0.02	0.44	0.51	0.01	0.01	0.00	0.00
15992	16	27	-2	0.27	-0.01	-0.77	0.02	0.38	0.59	0.00	0.01	0.00	0.00
16033	22	20	6	0.19	-0.02	-0.59	0.02	0.23	0.74	0.00	0.01	0.00	0.00
16073	24	-1	17	0.12	-0.03	-0.51	0.03	0.21	0.67	0.01	0.07	0.01	0.00
16113	22	-21	22	0.07	-0.02	-0.38	0.03	0.19	0.66	0.01	0.10	0.01	0.00
16154	22	-32	14	0.11	-0.08	-0.37	0.03	0.07	0.64	0.01	0.24	0.01	0.00
16196	27	-17	3	0.10	-0.08	-0.44	0.04	0.15	0.42	0.02	0.31	0.06	0.00
16237	19	4	-14	0.09	-0.13	-0.61	0.02	0.50	0.08	0.05	0.05	0.31	0.00
16279	8	10	-15	0.04	-0.17	-0.86	0.00	0.88	0.01	0.01	0.00	0.09	0.00
16321	-10	-0	-4	0.06	-0.18	-1.03	0.00	0.92	0.01	0.01	0.00	0.06	0.00
16362	-24	-1	-14	0.22	-0.17	-1.13	0.00	0.88	0.01	0.01	0.00	0.09	0.00
16404	-20	17	-8	0.21	-0.21	-1.06	0.01	0.84	0.03	0.02	0.00	0.10	0.00
16444	-6	27	-11	0.05	-0.19	-0.99	0.01	0.77	0.01	0.03	0.00	0.18	0.00
16484	-7	24	-12	0.07	-0.14	-0.86	0.00	0.88	0.01	0.02	0.00	0.08	0.00
16524	-18	18	-12	0.10	-0.12	-0.72	0.02	0.73	0.09	0.10	0.01	0.06	0.00
16564	-26	14	-13	0.15	-0.08	-0.58	0.04	0.30	0.50	0.11	0.04	0.02	0.00
16606	-17	6	-16	0.16	-0.08	-0.47	0.03	0.11	0.77	0.05	0.03	0.00	0.00
16646	-2	-6	-11	0.17	-0.04	-0.38	0.03	0.24	0.68	0.05	0.01	0.00	0.00
16688	9	-17	7	0.19	-0.04	-0.40	0.02	0.53	0.42	0.02	0.00	0.00	0.00
16729	21	-23	14	0.20	-0.04	-0.46	0.02	0.25	0.70	0.02	0.00	0.00	0.00
16770	16	-25	9	0.24	-0.05	-0.62	0.03	0.09	0.81	0.04	0.02	0.00	0.00
16812	2	-16	3	0.26	-0.07	-0.78	0.04	0.12	0.29	0.43	0.08	0.03	0.00
16852	-8	-5	2	0.30	-0.10	-0.91	0.04	0.18	0.24	0.41	0.07	0.06	0.00
16893	-10	0	6	0.31	-0.11	-1.06	0.04	0.26	0.50	0.13	0.04	0.02	0.00
16934	-2	3	2	0.38	-0.16	-1.13	0.04	0.14	0.74	0.05	0.04	0.00	0.00
16974	6	-7	10	0.30	-0.18	-1.16	0.04	0.06	0.77	0.07	0.07	0.00	0.00
17013	13	-13	11	0.37	-0.15	-1.23	0.04	0.03	0.63	0.17	0.12	0.01	0.00
17054	9	-21	7	0.27	-0.16	-1.27	0.05	0.04	0.37	0.41	0.11	0.01	0.00
17094	6	-23	11	0.33	-0.17	-1.39	0.07	0.04	0.55	0.18	0.14	0.01	0.00
17135	-2	-6	4	0.30	-0.18	-1.38	0.09	0.04	0.58	0.10	0.17	0.01	0.00
17176	-2	-32	7	0.18	-0.14	-1.41	0.05	0.03	0.75	0.04	0.12	0.00	0.00
17219	6	-51	6	0.17	-0.20	-1.38	0.03	0.02	0.85	0.01	0.09	0.00	0.00
17259	8	-52	13	0.17	-0.15	-1.46	0.01	0.01	0.92	0.00	0.05	0.00	0.00
17299	-11	-13	-7	0.23	-0.18	-1.52	0.02	0.01	0.90	0.00	0.07	0.00	0.00
17342	-12	22	-25	0.20	-0.21	-1.48	0.01	0.01	0.89	0.00	0.08	0.00	0.00
17382	-2	49	-14	0.20	-0.11	-1.40	0.01	0.01	0.92	0.00	0.06	0.00	0.00
17424	9	29	-18	0.18	-0.14	-1.27	0.01	0.00	0.92	0.00	0.07	0.00	0.00
17465	7	-6	1	0.21	-0.16	-1.22	0.02	0.01	0.80	0.00	0.17	0.00	0.00
17505	8	-30	8	0.23	-0.21	-1.22	0.05	0.02	0.57	0.01	0.34	0.01	0.00
17546	-6	-5	-5	0.32	-0.21	-1.17	0.07	0.03	0.31	0.02	0.53	0.03	0.00
17588	-6	56	-8	0.26	-0.18	-1.12	0.03	0.03	0.23	0.02	0.65	0.04	0.00
17629	-8	75	-10	0.25	-0.20	-1.06	0.02	0.03	0.10	0.02	0.72	0.12	0.00
17670	1	62	3	0.25	-0.15	-1.08	0.01	0.03	0.08	0.02	0.70	0.15	0.00
17711	-4	42	2	0.34	-0.17	-1.09	0.03	0.12	0.19	0.03	0.46	0.17	0.00
17752	-0	26	16	0.33	-0.16	-1.09	0.03	0.05	0.56	0.00	0.35	0.01	0.00
17793	1	20	9	0.34	-0.18	-1.05	0.02	0.02	0.63	0.00	0.33	0.00	0.00
17834	9	17	-4	0.31	-0.16	-0.95	0.02	0.02	0.69	0.00	0.26	0.00	0.00
17874	12	23	6	0.29	-0.10	-0.79	0.02	0.03	0.64	0.01	0.29	0.01	0.00
17914	8	25	-1	0.23	-0.11	-0.60	0.03	0.06	0.57	0.02	0.31	0.02	0.00
17955	14	28	-10	0.20	-0.12	-0.47	0.03	0.15	0.63	0.02	0.14	0.02	0.00
17996	10	21	4	0.14	-0.07	-0.37	0.03	0.54	0.35	0.03	0.02	0.03	0.00
18039	-3	2	11	0.13	-0.08	-0.37	0.03	0.59	0.22	0.05	0.03	0.08	0.00
18081	-1	-24	4	0.16	-0.10	-0.47	0.03	0.59	0.19	0.06	0.03	0.10	0.00
18122	0	-35	0	0.18	-0.09	-0.69	0.01	0.87	0.04	0.03	0.00	0.06	0.00
18164	-6	-26	-5	0.29	-0.11	-0.85	0.00	0.90	0.00	0.02	0.00	0.08	0.00
18206	-12	-9	-4	0.24	-0.13	-0.96	0.00	0.85	0.00	0.02	0.00	0.13	0.00
18249	-12	2	-3	0.27	-0.17	-0.94	0.00	0.92	0.00	0.01	0.00	0.07	0.00
18290	-1	8	-1	0.18	-0.17	-0.87	0.00	0.81	0.00	0.04	0.00	0.14	0.00
18332	12	-1	2	0.11	-0.18	-0.84	0.00	0.78	0.01	0.12	0.00	0.09	0.00
18372	14	-0	4	0.13	-0.15	-0.74	0.00	0.75	0.01	0.22	0.00	0.02	0.00
18414	-5	7	1	0.18	-0.12	-0.63	0.01	0.39	0.04	0.55	0.00	0.01	0.00
18456	-18	6	-6	0.19	-0.11	-0.49	0.01	0.27	0.03	0.68	0.00	0.01	0.00
18497	-18	-10	-10	0.13	-0.10	-0.44	0.00	0.70	0.00	0.29	0.00	0.01	0.00
18539	-7	-42	1	0.14	-0.09	-0.43	0.00	0.89	0.00	0.10	0.00	0.00	0.00
18580	6	-49	17	0.22	-0.10	-0.50	0.00	0.96	0.00	0.04	0.00	0.00	0.00
18620	12	-30	18	0.26	-0.10	-0.59	0.00	0.97	0.00	0.03	0.00	0.00	0.00
18660	-4	-3	5	0.26	-0.10	-0.73	0.00	0.98	0.00	0.01	0.00	0.00	0.00
18702	-16	16	-11	0.31	-0.14	-0.83	0.00	0.99	0.00	0.01	0.00	0.00	0.00
18744	-11	9	-2	0.28	-0.15	-0.92	0.00	0.99	0.00	0.01	0.00	0.00	0.00
18786	-2	-44	20	0.27	-0.17	-1.03	0.00	0.98	0.00	0.02	0.00	0.00	0.00
18827	10	-54	8	0.43	-0.16	-1.17	0.00	0.94	0.00	0.05	0.00	0.01	0.00
18870	2	-6	3	0.39	-0.14	-1.23	0.00	0.79	0.00	0.19	0.00	0.01	0.00
18912	-8	32	13	0.38	-0.14	-1.31	0.01	0.76	0.03	0.19	0.00	0.01	0.00
18954	-8	49	7	0.31	-0.19	-1.30	0.01	0.83	0.07	0.09	0.00	0.00	0.00
18996	-0	12	8	0.26	-0.15	-1.37	0.02	0.69	0.12	0.16	0.00	0.01	0.00
19038	6	-52	12	0.22	-0.20	-1.50	0.01	0.74	0.06	0.17	0.00	0.02	0.00
19078	33	-82	14	0.34	-0.24	-1.81	0.00	0.95	0.01	0.03	0.00	0.01	0.00
19119	2	1	0	0.34	-0.02	-1.72	0.00	0.98	0.00	0.01	0.00	0.01	0.00
19161	-27	34	-11	0.03	-0.23	-1.39	0.00	0.98	0.00	0.00	0.00	0.01	0.00
19203	-7	-5	-19	0.18	-0.18	-1.24	0.00	0.96	0.02	0.00	0.00	0.01	0.00
19246	13	-13	-11	0.28	-0.14	-1.22	0.02	0.76	0.20	0.01	0.00	0.01	0.00
19289	4	-14	-8	0.33	-0.19	-1.24	0.04	0.20	0.62	0.05	0.07	0.02	0.00
19331	-23	22	-14	0.32	-0.20	-1.20	0.04	0.10	0.52	0.07	0.23	0.03	0.00
19375	-18	40	-16	0.28	-0.26	-1.17	0.03	0.14	0.22	0.12	0.32	0.16	0.00
19419	-3	40	-19	0.26	-0.21	-1.13	0.01	0.15	0.02	0.08	0.09	0.65	0.00
19463	4	18	-5	0.26	-0.15	-1.11	0.00	0.13	0.00	0.02	0.00	0.84	0.00
19506	1	14	10	0.32	-0.18	-1.09	0.00	0.16	0.00	0.01	0.00	0.82	0.00
19548	6	17	1	0.34	-0.17	-1.09	0.01	0.26	0.01	0.02	0.02	0.69	0.00
19590	5	24	-2	0.34	-0.13	-1.06	0.02	0.49	0.05	0.03	0.03	0.38	0.00
19632	5	32	-2	0.32	-0.10	-0.96	0.01	0.52	0.02	0.04	0.01	0.39	0.00
19676	-6	29	8	0.31	-0.13	-0.83	0.03	0.29	0.17	0.02	0.22	0.27	0.00
19719	-3	21	1	0.22	-0.13	-0.67	0.03	0.59	0.20	0.02	0.05	0.11	0.00
19760	-5	-1	-2	0.16	-0.09	-0.54	0.04	0.32	0.32	0.08	0.14	0.11	0.00
19803	-3	-15	6	0.14	-0.09	-0.43	0.04	0.13	0.37	0.08	0.30	0.07	0.00
19844	3	-6	14	0.16	-0.08	-0.34	0.04	0.09	0.62	0.04	0.20	0.02	0.00
19886	7	5	13	0.10	-0.08	-0.40	0.03	0.08	0.57	0.03	0.26	0.02	0.00
19927	8	-5	5	0.12	-0.09	-0.51	0.03	0.65	0.14	0.04	0.02	0.11	0.00
19967	6	-17	-3	0.13	-0.10	-0.77	0.00	0.87	0.01	0.02	0.00	0.10	0.00
20009	-7	-30	1	0.16	-0.12	-0.95	0.00	0.76	0.01	0.04	0.00	0.19	0.00
20052	-8	-21	4	0.28	-0.16	-1.08	0.00	0.62	0.00	0.05	0.00	0.33	0.00
20094	-3	20	-1	0.31	-0.18	-1.05	0.00	0.54	0.00	0.06	0.00	0.40	0.00
20135	10	32	-3	0.10	-0.18	-0.93	0.00	0.85	0.01	0.03	0.00	0.11	0.00
20176	13	4	-3	0.03	-0.15	-0.79	0.00	0.95	0.00	0.01	0.00	0.03	0.00
20217	9	-16	-2	0.10	-0.11	-0.69	0.00	0.91	0.01	0.05	0.00	0.03	0.00
20257	-3	-12	-1	0.12	-0.10	-0.58	0.02	0.62	0.14	0.20	0.00	0.02	0.00
20301	-13	-5	-4	0.09	-0.08	-0.47	0.01	0.58	0.03	0.36	0.00	0.03	0.00
20342	-10	-17	-3	0.08	-0.09	-0.43	0.01	0.70	0.03	0.26	0.00	0.01	0.00
20385	-3	-35	4	0.10	-0.06	-0.47	0.01	0.68	0.09	0.21	0.00	0.01	0.00
20425	-4	-51	10	0.13	-0.09	-0.56	0.01	0.82	0.05	0.13	0.00	0.00	0.00
20466	4	-52	12	0.19	-0.11	-0.70	0.01	0.69	0.09	0.21	0.00	0.00	0.00
20508	4	-37	16	0.24	-0.14	-0.82	0.00	0.52	0.02	0.45	0.00	0.01	0.00
20549	-0	-15	2	0.25	-0.13	-0.94	0.00	0.62	0.00	0.36	0.00	0.01	0.00
20591	-4	-14	1	0.20	-0.18	-1.03	0.00	0.74	0.00	0.25	0.00	0.01	0.00
20632	-2	-29	11	0.28	-0.18	-1.18	0.00	0.85	0.02	0.13	0.00	0.01	0.00
20672	-3	-46	9	0.19	-0.20	-1.31	0.00	0.90	0.02	0.07	0.00	0.00	0.00
20713	3	-55	20	0.14	-0.19	-1.32	0.02	0.62	0.10	0.25	0.00	0.01	0.00
20754	6	-36	11	0.07	-0.16	-1.34	0.01	0.46	0.05	0.46	0.00	0.02	0.00
20796	12	-1	6	0.04	-0.22	-1.36	0.01	0.25	0.05	0.66	0.00	0.02	0.00
20837	9	26	6	0.02	-0.15	-1.36	0.02	0.17	0.11	0.68	0.01	0.02	0.00
20877	-2	10	7	-0.05	-0.25	-1.40	0.01	0.34	0.06	0.57	0.00	0.02	0.00
20918	1	-24	-2	-0.01	-0.20	-1.50	0.01	0.46	0.02	0.49	0.00	0.03	0.00
20959	-15	-29	2	0.07	-0.19	-1.62	0.00	0.62	0.01	0.31	0.00	0.06	0.00
21002	-6	2	-1	0.06	-0.23	-1.52	0.00	0.62	0.00	0.28	0.00	0.10	0.00
21044	-8	41	-23	0.02	-0.17	-1.33	0.00	0.53	0.00	0.31	0.00	0.15	0.00
21085	-14	34	-21	0.03	-0.16	-1.20	0.00	0.32	0.00	0.34	0.00	0.33	0.00
21127	-1	18	-4	0.12	-0.20	-1.17	0.00	0.32	0.00	0.31	0.00	0.37	0.00
21168	-4	19	-13	0.21	-0.15	-1.18	0.00	0.18	0.00	0.33	0.00	0.48	0.00
21209	-8	42	-18	0.20	-0.19	-1.19	0.00	0.20	0.00	0.22	0.00	0.57	0.00
21250	-0	53	-15	0.22	-0.18	-1.14	0.00	0.21	0.00	0.09	0.00	0.70	0.00
21291	2	67	-11	0.29	-0.15	-1.14	0.00	0.17	0.00	0.01	0.00	0.82	0.00
21333	8	70	-8	0.26	-0.14	-1.12	0.00	0.19	0.00	0.01	0.00	0.80	0.00
21374	-5	61	1	0.32	-0.14	-1.12	0.00	0.20	0.00	0.01	0.00	0.79	0.00
21415	-0	46	-5	0.30	-0.15	-1.11	0.00	0.44	0.00	0.01	0.00	0.55	0.00
21456	-3	30	-6	0.36	-0.11	-1.04	0.00	0.57	0.00	0.02	0.00	0.41	0.00
21496	-0	35	-15	0.32	-0.09	-0.89	0.00	0.74	0.01	0.02	0.00	0.22	0.00
21538	-8	26	-4	0.25	-0.06	-0.74	0.00	0.76	0.00	0.03	0.00	0.20	0.00
21578	-11	9	1	0.19	-0.10	-0.55	0.00	0.88	0.00	0.01	0.00	0.11	0.00
21620	-2	-4	4	0.17	-0.09	-0.44	0.00	0.89	0.00	0.01	0.00	0.10	0.00
21661	6	-12	13	0.14	-0.08	-0.38	0.00	0.81	0.00	0.02	0.00	0.17	0.00
21703	11	-20	10	0.12	-0.11	-0.41	0.00	0.93	0.00	0.00	0.00	0.06	0.00
21745	13	-29	-1	0.15	-0.11	-0.52	0.00	0.82	0.00	0.00	0.00	0.18	0.00
21786	11	-28	-10	0.20	-0.12	-0.74	0.00	0.68	0.00	0.00	0.00	0.31	0.00
21827	7	-21	-9	0.20	-0.14	-0.87	0.00	0.82	0.00	0.00	0.00	0.18	0.00
21869	9	-16	-7	0.23	-0.14	-1.00	0.00	0.78	0.00	0.00	0.00	0.21	0.00
21909	2	-7	4	0.23	-0.15	-0.95	0.00	0.85	0.00	0.00	0.00	0.15	0.00
21949	2	-8	4	0.09	-0.17	-0.91	0.00	0.94	0.00	0.00	0.00	0.06	0.00
21988	4	-10	-1	0.08	-0.16	-0.83	0.00	0.97	0.00	0.00	0.00	0.02	0.00
22028	9	6	-1	0.12	-0.14	-0.74	0.00	0.99	0.00	0.00	0.00	0.01	0.00
22068	2	16	0	0.11	-0.10	-0.61	0.00	0.98	0.00	0.01	0.00	0.01	0.00
22106	-8	-6	-5	0.08	-0.11	-0.52	0.00	0.91	0.00	0.08	0.00	0.02	0.00
22149	-11	-41	-3	0.12	-0.08	-0.46	0.00	0.94	0.00	0.05	0.00	0.01	0.00
22189	-10	-60	1	0.15	-0.07	-0.53	0.00	0.99	0.00	0.01	0.00	0.00	0.00
22229	-14	-57	9	0.18	-0.09	-0.61	0.00	1.00	0.00	0.00	0.00	0.00	0.00
22269	-9	-35	8	0.27	-0.09	-0.71	0.00	1.00	0.00	0.00	0.00	0.00	0.00
22309	-7	-4	4	0.26	-0.14	-0.89	0.00	1.00	0.00	0.00	0.00	0.00	0.00
22350	-5	11	3	0.27	-0.12	-0.93	0.00	1.00	0.00	0.00	0.00	0.00	0.00
22389	-6	-12	14	0.21	-0.13	-0.99	0.00	0.99	0.00	0.01	0.00	0.00	0.00
22428	4	-35	18	0.25	-0.18	-1.07	0.00	0.96	0.00	0.03	0.00	0.00	0.00
22468	12	-29	2	0.27	-0.09	-1.13	0.00	0.91	0.00	0.08	0.00	0.01	0.00
22507	-5	0	20	0.24	-0.15	-1.25	0.00	0.93	0.00	0.07	0.00	0.00	0.00
22547	-11	24	12	0.19	-0.17	-1.31	0.00	0.95	0.00	0.05	0.00	0.00	0.00
22586	-6	18	4	0.18	-0.18	-1.42	0.00	0.95	0.00	0.04	0.00	0.00	0.00
22625	-3	7	9	0.13	-0.16	-1.51	0.00	0.91	0.00	0.08	0.00	0.01	0.00
22665	0	-9	12	0.10	-0.16	-1.52	0.00	0.89	0.00	0.10	0.00	0.01	0.00
22704	14	-18	4	0.09	-0.14	-1.50	0.00	0.96	0.00	0.03	0.00	0.01	0.00
22744	4	-16	12	0.11	-0.14	-1.47	0.00	0.97	0.00	0.01	0.00	0.01	0.00
22783	-3	4	3	0.14	-0.18	-1.45	0.00	0.98	0.00	0.01	0.00	0.02	0.00
22823	-4	24	-12	0.17	-0.15	-1.37	0.00	0.96	0.00	0.02	0.00	0.02	0.00
22863	-11	24	-13	0.20	-0.11	-1.29	0.00	0.86	0.01	0.09	0.00	0.04	0.00
22903	-17	24	-5	0.21	-0.14	-1.26	0.01	0.74	0.02	0.19	0.00	0.05	0.00
22943	-9	18	-13	0.24	-0.14	-1.23	0.01	0.57	0.03	0.30	0.00	0.09	0.00
22985	-13	7	-10	0.24	-0.10	-1.21	0.02	0.36	0.05	0.40	0.01	0.16	0.00
23028	-16	8	3	0.22	-0.14	-1.17	0.01	0.37	0.02	0.30	0.01	0.29	0.00
23070	-7	4	7	0.20	-0.15	-1.11	0.01	0.34	0.01	0.26	0.00	0.38	0.00
23109	-0	11	-4	0.26	-0.10	-1.07	0.00	0.18	0.01	0.32	0.01	0.49	0.00
23150	-3	36	-5	0.24	-0.04	-1.05	0.01	0.17	0.01	0.31	0.01	0.50	0.00
23191	-1	39	4	0.23	-0.05	-0.96	0.01	0.31	0.01	0.24	0.01	0.41	0.00
23232	11	42	11	0.26	-0.07	-0.91	0.01	0.46	0.03	0.15	0.01	0.35	0.00
23275	28	38	10	0.23	-0.02	-0.84	0.02	0.59	0.09	0.13	0.02	0.16	0.00
23315	21	31	9	0.27	-0.03	-0.75	0.02	0.62	0.14	0.14	0.01	0.07	0.00
23356	9	33	-3	0.21	-0.09	-0.71	0.04	0.37	0.35	0.15	0.04	0.05	0.00
23396	11	28	-16	0.24	-0.11	-0.60	0.04	0.29	0.44	0.12	0.07	0.04	0.00
23436	8	48	-25	0.34	-0.03	-0.51	0.04	0.44	0.38	0.08	0.03	0.04	0.00
23476	-7	66	5	0.23	0.01	-0.46	0.02	0.81	0.10	0.03	0.00	0.04	0.00
23518	-41	36	21	0.16	-0.15	-0.46	0.01	0.84	0.04	0.02	0.00	0.10	0.00
23559	-35	-9	-1	0.14	-0.23	-0.57	0.00	0.87	0.01	0.01	0.00	0.11	0.00
23601	-21	-55	-17	0.13	-0.09	-0.78	0.00	0.88	0.00	0.01	0.00	0.10	0.00
23642	-21	-63	-14	0.24	-0.02	-0.86	0.00	0.92	0.00	0.00	0.00	0.08	0.00
23685	-25	-15	-14	0.31	-0.03	-0.88	0.00	0.97	0.00	0.00	0.00	0.03	0.00
23727	-7	34	-10	0.29	-0.07	-0.72	0.00	0.98	0.01	0.00	0.00	0.01	0.00
23768	12	33	-6	0.20	-0.02	-0.59	0.00	0.96	0.03	0.00	0.00	0.01	0.00
23809	6	9	-2	0.28	-0.00	-0.47	0.01	0.88	0.10	0.00	0.00	0.00	0.00
23850	-2	2	2	0.33	-0.05	-0.35	0.01	0.75	0.23	0.00	0.00	0.00	0.00
23891	2	0	5	0.29	-0.05	-0.30	0.02	0.54	0.41	0.02	0.00	0.00	0.00
23931	3	-7	11	0.23	-0.06	-0.32	0.02	0.56	0.39	0.02	0.00	0.00	0.00
23972	2	-11	2	0.26	-0.04	-0.46	0.01	0.77	0.18	0.03	0.00	0.00	0.00
24012	-4	21	-4	0.36	-0.04	-0.63	0.00	0.94	0.04	0.02	0.00	0.00	0.00
24053	2	31	-1	0.38	-0.05	-0.79	0.01	0.67	0.29	0.02	0.00	0.00	0.00
24095	8	25	12	0.54	-0.02	-1.02	0.01	0.35	0.63	0.01	0.00	0.00	0.00
24135	-2	15	14	0.60	-0.05	-1.12	0.01	0.66	0.33	0.00	0.00	0.00	0.00
24176	-8	12	4	0.59	0.01	-1.16	0.01	0.18	0.81	0.00	0.00	0.00	0.00
24216	-15	13	12	0.66	-0.01	-1.17	0.01	0.03	0.96	0.00	0.00	0.00	0.00
24256	-14	22	7	0.62	0.03	-1.18	0.00	0.02	0.97	0.00	0.00	0.00	0.00
24298	-15	37	5	0.70	0.04	-1.19	0.01	0.05	0.94	0.00	0.00	0.00	0.00
24338	-9	55	24	0.67	0.03	-1.14	0.01	0.17	0.82	0.00	0.00	0.00	0.00
24379	14	57	26	0.78	-0.03	-1.24	0.00	0.15	0.85	0.00	0.00	0.00	0.00
24421	13	70	39	0.73	-0.12	-1.26	0.00	0.09	0.91	0.00	0.00	0.00	0.00
24461	-7	68	6	0.88	-0.07	-1.29	0.00	0.17	0.83	0.00	0.00	0.00	0.00
24503	-18	62	-38	1.03	-0.08	-1.19	0.00	0.23	0.77	0.00	0.00	0.00	0.00
24544	3	43	-30	1.06	0.08	-1.00	0.00	0.10	0.90	0.00	0.00	0.00	0.00
24585	11	-7	20	1.00	0.01	-0.90	0.00	0.03	0.97	0.00	0.00	0.00	0.00
24625	14	-53	12	0.92	-0.08	-0.93	0.01	0.15	0.84	0.00	0.00	0.00	0.00
24666	-1	-49	8	0.87	-0.05	-1.04	0.00	0.08	0.92	0.00	0.00	0.00	0.00
24708	-27	-31	-20	0.68	-0.05	-1.03	0.01	0.06	0.93	0.00	0.00	0.00	0.00
24752	-12	-27	-19	0.69	0.00	-0.99	0.00	0.03	0.97	0.00	0.00	0.00	0.00
24794	3	-13	-1	0.71	-0.01	-0.97	0.00	0.00	1.00	0.00	0.00	0.00	0.00
24836	17	-23	-2	0.66	-0.05	-0.94	0.00	0.00	1.00	0.00	0.00	0.00	0.00
24877	15	-42	-2	0.67	-0.04	-0.95	0.00	0.00	1.00	0.00	0.00	0.00	0.00
24918	8	-42	-1	0.68	-0.04	-0.96	0.00	0.00	1.00	0.00	0.00	0.00	0.00
24959	11	-26	4	0.64	-0.08	-0.92	0.00	0.00	1.00	0.00	0.00	0.00	0.00
25003	8	-17	-6	0.55	-0.06	-0.84	0.00	0.00	1.00	0.00	0.00	0.00	0.00
25044	1	-26	-2	0.50	-0.02	-0.72	0.00	0.00	1.00	0.00	0.00	0.00	0.00
25085	-15	-23	-11	0.39	-0.07	-0.61	0.00	0.00	1.00	0.00	0.00	0.00	0.00
25127	-10	-38	11	0.25	-0.08	-0.44	0.00	0.00	1.00	0.00	0.00	0.00	0.00
25168	-9	-45	4	0.20	-0.06	-0.34	0.00	0.00	0.99	0.00	0.00	0.00	0.00
25211	3	-48	-4	0.15	-0.11	-0.29	0.00	0.03	0.97	0.00	0.00	0.00	0.00
25251	17	-45	-6	0.16	-0.08	-0.30	0.00	0.01	0.98	0.00	0.00	0.00	0.00
25291	15	-42	-2	0.15	-0.02	-0.46	0.00	0.00	0.99	0.00	0.00	0.00	0.00
25331	5	-49	-2	0.18	-0.01	-0.71	0.00	0.06	0.94	0.00	0.00	0.00	0.00
25371	-6	-53	10	0.22	-0.05	-0.98	0.00	0.01	0.99	0.00	0.00	0.00	0.00
25413	5	-11	8	0.35	-0.08	-1.07	0.00	0.01	0.98	0.00	0.00	0.00	0.00
25453	15	43	-5	0.22	-0.09	-0.93	0.00	0.01	0.99	0.00	0.00	0.00	0.00
25494	11	40	-12	0.03	-0.05	-0.80	0.00	0.02	0.98	0.00	0.00	0.00	0.00
25534	-0	7	-7	0.07	-0.08	-0.70	0.00	0.12	0.87	0.00	0.00	0.00	0.00
25575	-1	-3	-5	0.16	-0.08	-0.61	0.00	0.20	0.79	0.00	0.00	0.00	0.00
25617	-1	1	-18	0.20	-0.07	-0.48	0.00	0.03	0.97	0.00	0.00	0.00	0.00
25659	-1	0	-25	0.19	-0.03	-0.38	0.00	0.01	0.99	0.00	0.00	0.00	0.00
25701	-2	-2	-6	0.23	-0.01	-0.37	0.00	0.02	0.98	0.00	0.00	0.00	0.00
25743	6	10	9	0.30	-0.03	-0.44	0.00	0.20	0.80	0.00	0.00	0.00	0.00
25783	12	38	13	0.36	-0.06	-0.56	0.00	0.71	0.28	0.00	0.00	0.00	0.00
25823	11	49	2	0.37	-0.07	-0.70	0.00	0.98	0.02	0.00	0.00	0.00	0.00
25862	0	35	-6	0.41	-0.08	-0.92	0.00	1.00	0.00	0.00	0.00	0.00	0.00
25902	-3	17	-1	0.51	-0.10	-1.09	0.00	0.99	0.01	0.00	0.00	0.00	0.00
25944	-0	12	1	0.49	-0.07	-1.18	0.00	0.91	0.08	0.00	0.00	0.00	0.00
25984	-3	5	9	0.52	-0.06	-1.21	0.00	0.53	0.47	0.00	0.00	0.00	0.00
26026	2	34	9	0.62	-0.09	-1.17	0.00	0.40	0.59	0.00	0.00	0.00	0.00
26067	1	43	13	0.62	-0.10	-1.13	0.00	0.03	0.97	0.00	0.00	0.00	0.00
26109	-4	25	12	0.70	-0.14	-1.13	0.00	0.01	0.99	0.00	0.00	0.00	0.00
26151	-7	4	-2	0.74	-0.12	-1.16	0.00	0.01	0.98	0.00	0.00	0.00	0.00
26195	-4	6	16	0.74	-0.12	-1.15	0.00	0.01	0.98	0.00	0.00	0.00	0.00
26238	7	-12	16	0.62	-0.10	-1.12	0.00	0.09	0.90	0.00	0.00	0.00	0.00
26280	2	-8	7	0.69	-0.05	-1.20	0.01	0.10	0.89	0.00	0.00	0.00	0.00
26322	-23	16	-19	0.54	-0.05	-1.20	0.01	0.17	0.82	0.00	0.00	0.00	0.00
26365	-20	19	-3	0.58	-0.10	-1.19	0.01	0.57	0.42	0.00	0.00	0.00	0.00
26408	-7	2	-1	0.68	-0.11	-1.19	0.01	0.23	0.76	0.00	0.00	0.00	0.00
26450	1	-11	-5	0.66	-0.08	-1.18	0.00	0.08	0.92	0.00	0.00	0.00	0.00
26492	-23	-42	-14	0.63	-0.09	-1.21	0.00	0.01	0.99	0.00	0.00	0.00	0.00
26536	-35	-44	-40	0.68	0.05	-1.26	0.00	0.00	0.99	0.00	0.00	0.00	0.00
26579	-12	-7	-17	0.63	0.01	-1.22	0.00	0.00	0.99	0.00	0.00	0.00	0.00
26622	18	7	13	0.60	0.01	-1.07	0.00	0.00	0.99	0.00	0.00	0.00	0.00
26662	18	-20	6	0.51	-0.02	-0.98	0.00	0.00	0.99	0.00	0.00	0.00	0.00
26702	6	-47	-2	0.53	-0.03	-0.98	0.00	0.01	0.99	0.00	0.00	0.00	0.00
26744	4	-47	-4	0.43	-0.01	-1.00	0.00	0.02	0.98	0.00	0.00	0.00	0.00
26785	4	-31	2	0.47	-0.00	-1.04	0.00	0.03	0.97	0.00	0.00	0.00	0.00
26826	14	10	4	0.42	-0.01	-1.02	0.00	0.01	0.99	0.00	0.00	0.00	0.00
26866	15	29	7	0.38	-0.01	-0.94	0.00	0.00	1.00	0.00	0.00	0.00	0.00
26906	4	25	0	0.34	-0.03	-0.79	0.00	0.00	1.00	0.00	0.00	0.00	0.00
26946	5	3	-5	0.27	-0.06	-0.67	0.00	0.00	1.00	0.00	0.00	0.00	0.00
26987	11	-22	-3	0.16	-0.06	-0.53	0.00	0.00	1.00	0.00	0.00	0.00	0.00
27028	8	-38	2	0.08	-0.09	-0.50	0.00	0.00	1.00	0.00	0.00	0.00	0.00
27070	0	-19	-3	0.11	-0.07	-0.44	0.00	0.00	1.00	0.00	0.00	0.00	0.00
27113	-6	9	-8	0.15	-0.07	-0.45	0.00	0.00	1.00	0.00	0.00	0.00	0.00
27155	-9	23	-14	0.18	-0.08	-0.49	0.00	0.00	1.00	0.00	0.00	0.00	0.00
27197	-5	7	-12	0.20	-0.02	-0.63	0.00	0.00	1.00	0.00	0.00	0.00	0.00
27238	-1	-45	3	0.21	-0.07	-0.82	0.00	0.00	1.00	0.00	0.00	0.00	0.00
27279	5	-40	18	0.45	-0.01	-0.99	0.00	0.00	1.00	0.00	0.00	0.00	0.00
27320	1	25	14	0.40	-0.07	-0.96	0.00	0.00	1.00	0.00	0.00	0.00	0.00
27362	6	40	10	0.13	-0.07	-0.88	0.00	0.00	1.00	0.00	0.00	0.00	0.00
27402	5	2	3	0.12	-0.06	-0.85	0.00	0.00	1.00	0.00	0.00	0.00	0.00
27442	4	-19	-4	0.20	-0.05	-0.83	0.00	0.01	0.99	0.00	0.00	0.00	0.00
27483	3	0	-4	0.23	-0.03	-0.71	0.00	0.00	0.99	0.00	0.00	0.00	0.00
27524	-2	23	-6	0.15	-0.04	-0.57	0.00	0.00	0.99	0.00	0.00	0.00	0.00
27566	0	17	-6	0.12	-0.04	-0.44	0.00	0.00	0.99	0.00	0.00	0.00	0.00
27607	1	1	5	0.15	-0.04	-0.43	0.00	0.01	0.99	0.00	0.00	0.00	0.00
27647	1	-13	11	0.18	-0.08	-0.48	0.01	0.01	0.99	0.00	0.00	0.00	0.00
27688	6	-5	9	0.29	-0.08	-0.57	0.01	0.01	0.98	0.00	0.00	0.00	0.00
27728	5	18	8	0.32	-0.07	-0.66	0.01	0.01	0.97	0.00	0.00	0.00	0.00
27769	-1	31	-5	0.35	-0.09	-0.75	0.01	0.01	0.97	0.00	0.00	0.00	0.00
27810	1	25	3	0.49	-0.05	-0.85	0.01	0.01	0.98	0.00	0.00	0.00	0.00
27850	-8	9	12	0.52	-0.05	-0.97	0.01	0.01	0.98	0.00	0.00	0.00	0.00
27892	-3	6	12	0.62	-0.13	-1.08	0.01	0.01	0.98	0.00	0.00	0.00	0.00
27933	1	16	-2	0.58	-0.06	-1.16	0.01	0.01	0.97	0.00	0.00	0.00	0.00
27973	-12	40	0	0.67	-0.03	-1.20	0.01	0.02	0.97	0.00	0.00	0.00	0.00
28015	-13	53	-7	0.57	-0.04	-1.14	0.01	0.01	0.98	0.00	0.00	0.00	0.00
28057	-15	32	3	0.69	-0.03	-1.14	0.01	0.01	0.99	0.00	0.00	0.00	0.00
28098	-9	19	0	0.66	-0.03	-1.17	0.01	0.01	0.99	0.00	0.00	0.00	0.00
28138	-3	6	18	0.64	-0.07	-1.17	0.01	0.01	0.98	0.00	0.00	0.00	0.00
28179	-2	13	19	0.62	-0.12	-1.20	0.01	0.01	0.98	0.00	0.00	0.00	0.00
28219	-0	23	3	0.72	-0.06	-1.25	0.01	0.01	0.99	0.00	0.00	0.00	0.00
28260	-13	49	-9	0.70	-0.02	-1.18	0.00	0.00	0.99	0.00	0.00	0.00	0.00
28304	-6	26	9	0.75	-0.06	-1.11	0.00	0.00	0.99	0.00	0.00	0.00	0.00
28345	12	-16	-6	0.74	-0.03	-1.10	0.00	0.00	0.99	0.00	0.00	0.00	0.00
28386	4	-29	-16	0.81	0.00	-1.12	0.00	0.00	0.99	0.00	0.00	0.00	0.00
28427	-6	-10	-16	0.77	-0.03	-1.10	0.00	0.00	0.99	0.00	0.00	0.00	0.00
28470	-6	30	-7	0.75	-0.04	-1.01	0.00	0.00	0.99	0.00	0.00	0.00	0.00
28512	-4	31	-14	0.69	-0.03	-0.93	0.00	0.01	0.99	0.00	0.00	0.00	0.00
28552	-1	8	2	0.69	-0.03	-0.95	0.00	0.01	0.99	0.00	0.00	0.00	0.00
28593	14	-16	1	0.69	-0.07	-0.98	0.00	0.02	0.98	0.00	0.00	0.00	0.00
28635	17	-22	4	0.68	-0.03	-1.02	0.00	0.01	0.99	0.00	0.00	0.00	0.00
28676	9	-15	1	0.66	-0.03	-1.05	0.00	0.00	1.00	0.00	0.00	0.00	0.00
28717	4	-10	6	0.61	-0.04	-1.02	0.00	0.00	1.00	0.00	0.00	0.00	0.00
28756	3	-10	6	0.60	-0.01	-0.93	0.00	0.00	1.00	0.00	0.00	0.00	0.00
28796	1	-28	6	0.53	-0.04	-0.85	0.00	0.00	1.00	0.00	0.00	0.00	0.00
28835	2	-40	3	0.50	-0.05	-0.76	0.00	0.00	1.00	0.00	0.00	0.00	0.00
28876	1	-37	1	0.41	-0.04	-0.62	0.00	0.00	1.00	0.00	0.00	0.00	0.00
28916	-3	-25	-8	0.36	-0.06	-0.53	0.00	0.00	1.00	0.00	0.00	0.00	0.00
28957	5	-12	-1	0.29	-0.07	-0.42	0.00	0.00	1.00	0.00	0.00	0.00	0.00
28998	4	-8	-2	0.24	-0.08	-0.36	0.00	0.00	1.00	0.00	0.00	0.00	0.00
29039	2	-14	5	0.24	-0.06	-0.32	0.00	0.00	1.00	0.00	0.00	0.00	0.00
29080	-2	-21	-3	0.20	-0.07	-0.42	0.00	0.00	1.00	0.00	0.00	0.00	0.00
29123	0	-34	-4	0.25	-0.06	-0.57	0.00	0.01	0.99	0.00	0.00	0.00	0.00
29166	8	-28	-4	0.25	-0.05	-0.85	0.00	0.01	0.99	0.00	0.00	0.00	0.00
29208	6	-18	1	0.35	-0.03	-0.98	0.00	0.00	1.00	0.00	0.00	0.00	0.00
29249	1	24	3	0.45	-0.05	-0.93	0.00	0.00	1.00	0.00	0.00	0.00	0.00
29290	-3	35	1	0.25	-0.09	-0.83	0.00	0.00	1.00	0.00	0.00	0.00	0.00
29330	0	-12	1	0.17	-0.09	-0.79	0.00	0.00	1.00	0.00	0.00	0.00	0.00
29371	0	-43	3	0.24	-0.08	-0.78	0.00	0.01	0.99	0.00	0.00	0.00	0.00
29414	3	-22	5	0.32	-0.07	-0.72	0.00	0.00	0.99	0.00	0.00	0.00	0.00
29455	2	25	4	0.29	-0.07	-0.58	0.00	0.00	1.00	0.00	0.00	0.00	0.00
29497	-1	52	-1	0.21	-0.05	-0.45	0.00	0.00	0.99	0.00	0.00	0.00	0.00
29537	-7	37	-5	0.14	-0.06	-0.38	0.00	0.00	1.00	0.00	0.00	0.00	0.00
29578	-5	-0	-2	0.17	-0.06	-0.42	0.00	0.01	0.99	0.00	0.00	0.00	0.00
29620	-5	-31	6	0.26	-0.07	-0.51	0.00	0.00	0.99	0.00	0.00	0.00	0.00
29660	-2	-43	3	0.35	-0.08	-0.65	0.00	0.01	0.99	0.00	0.00	0.00	0.00
29703	1	-38	-5	0.36	-0.09	-0.82	0.00	0.04	0.95	0.00	0.00	0.00	0.00
29745	3	-9	-4	0.47	-0.07	-0.96	0.00	0.07	0.93	0.00	0.00	0.00	0.00
29787	0	34	-1	0.50	-0.08	-1.05	0.00	0.07	0.93	0.00	0.00	0.00	0.00
29827	3	28	8	0.40	-0.11	-1.08	0.00	0.07	0.92	0.00	0.00	0.00	0.00
29867	3	-12	17	0.51	-0.09	-1.17	0.00	0.04	0.96	0.00	0.00	0.00	0.00
29908	-6	-35	11	0.47	-0.09	-1.23	0.01	0.05	0.94	0.00	0.00	0.00	0.00
29949	-10	-37	13	0.48	-0.05	-1.22	0.01	0.02	0.97	0.00	0.00	0.00	0.00
29991	-10	5	17	0.42	-0.02	-1.21	0.01	0.02	0.97	0.00	0.00	0.00	0.00
30033	-8	31	10	0.43	-0.07	-1.22	0.01	0.06	0.93	0.00	0.00	0.00	0.00
30073	3	39	15	0.47	-0.09	-1.22	0.01	0.05	0.94	0.00	0.00	0.00	0.00
30114	8	22	6	0.52	-0.14	-1.27	0.01	0.04	0.95	0.00	0.00	0.00	0.00
30153	23	8	10	0.57	-0.16	-1.32	0.01	0.06	0.93	0.00	0.00	0.00	0.00
30193	18	14	17	0.61	-0.08	-1.32	0.01	0.07	0.93	0.00	0.00	0.00	0.00
30235	-16	15	-14	0.50	-0.11	-1.26	0.01	0.07	0.92	0.00	0.00	0.00	0.00
30276	-11	12	-11	0.51	-0.08	-1.19	0.01	0.09	0.90	0.00	0.00	0.00	0.00
30317	-1	9	1	0.56	-0.08	-1.18	0.01	0.07	0.92	0.00	0.00	0.00	0.00
30357	-5	24	-5	0.62	-0.11	-1.16	0.01	0.21	0.78	0.00	0.00	0.00	0.00
30397	-6	36	-20	0.60	-0.08	-1.12	0.01	0.35	0.65	0.00	0.00	0.00	0.00
30438	-3	20	-10	0.58	-0.09	-1.08	0.01	0.52	0.48	0.00	0.00	0.00	0.00
30477	4	-5	-10	0.56	-0.11	-1.07	0.01	0.49	0.50	0.00	0.00	0.00	0.00
30518	12	-19	-7	0.58	-0.09	-1.08	0.01	0.17	0.82	0.00	0.00	0.00	0.00
30557	3	-9	-4	0.56	-0.09	-1.08	0.01	0.38	0.61	0.00	0.00	0.00	0.00
30597	-1	9	-7	0.59	-0.11	-1.05	0.01	0.55	0.44	0.00	0.00	0.00	0.00
30637	-3	33	-10	0.53	-0.08	-1.00	0.01	0.13	0.87	0.00	0.00	0.00	0.00
30677	-2	22	-4	0.52	-0.08	-0.96	0.00	0.02	0.97	0.00	0.00	0.00	0.00
30717	3	8	-4	0.54	-0.06	-0.93	0.00	0.00	1.00	0.00	0.00	0.00	0.00
30756	-1	-9	-5	0.45	-0.05	-0.83	0.00	0.00	0.99	0.00	0.00	0.00	0.00
30796	-4	-16	-1	0.39	-0.06	-0.73	0.00	0.00	1.00	0.00	0.00	0.00	0.00
30836	0	-17	-2	0.30	-0.07	-0.62	0.00	0.00	1.00	0.00	0.00	0.00	0.00
30877	-3	-5	-14	0.32	-0.05	-0.52	0.00	0.00	0.99	0.00	0.00	0.00	0.00
30917	-1	13	-13	0.29	-0.06	-0.42	0.00	0.01	0.99	0.00	0.00	0.00	0.00
30957	1	14	-8	0.23	-0.04	-0.35	0.00	0.03	0.96	0.00	0.00	0.00	0.00
30996	-5	-3	-1	0.26	-0.03	-0.36	0.00	0.02	0.97	0.00	0.00	0.00	0.00
31036	-11	-27	1	0.27	-0.05	-0.44	0.00	0.03	0.97	0.00	0.00	0.00	0.00
31077	-8	-51	1	0.31	-0.06	-0.68	0.00	0.02	0.98	0.00	0.00	0.00	0.00
31116	-4	-62	-6	0.33	-0.05	-0.90	0.00	0.03	0.97	0.00	0.00	0.00	0.00
31157	2	-24	-2	0.54	-0.03	-0.99	0.00	0.02	0.98	0.00	0.00	0.00	0.00
31200	4	39	3	0.39	-0.03	-0.89	0.00	0.01	0.99	0.00	0.00	0.00	0.00
31242	1	23	4	0.14	-0.06	-0.77	0.00	0.00	1.00	0.00	0.00	0.00	0.00
31283	-0	-31	6	0.18	-0.06	-0.70	0.00	0.00	0.99	0.00	0.00	0.00	0.00
31323	3	-50	2	0.25	-0.06	-0.64	0.00	0.00	0.99	0.00	0.00	0.00	0.00
31364	4	-32	2	0.23	-0.06	-0.53	0.00	0.01	0.99	0.00	0.00	0.00	0.00
31405	9	-1	3	0.18	-0.04	-0.43	0.00	0.01	0.99	0.00	0.00	0.00	0.00
31446	6	5	7	0.15	-0.04	-0.40	0.00	0.01	0.99	0.00	0.00	0.00	0.00
31487	9	-6	12	0.16	-0.05	-0.43	0.00	0.01	0.98	0.00	0.00	0.00	0.00
31527	7	-18	8	0.26	-0.05	-0.51	0.01	0.02	0.97	0.00	0.00	0.00	0.00
31568	-3	-28	-2	0.26	-0.06	-0.64	0.01	0.03	0.95	0.01	0.00	0.00	0.00
31609	-5	-39	-8	0.32	-0.08	-0.81	0.01	0.11	0.87	0.01	0.00	0.00	0.00
31653	5	-26	1	0.42	-0.09	-1.01	0.01	0.09	0.89	0.01	0.00	0.00	0.00
31694	10	1	12	0.38	-0.08	-1.14	0.01	0.07	0.91	0.01	0.00	0.00	0.00
31734	7	25	4	0.42	-0.13	-1.21	0.01	0.06	0.93	0.00	0.00	0.00	0.00
31775	-0	56	4	0.41	-0.08	-1.23	0.01	0.05	0.94	0.00	0.00	0.00	0.00
31814	-19	34	17	0.43	-0.08	-1.24	0.01	0.04	0.94	0.01	0.00	0.00	0.00
31856	-16	-1	7	0.46	-0.13	-1.29	0.01	0.06	0.92	0.01	0.00	0.00	0.00
31898	7	-32	21	0.51	-0.09	-1.36	0.01	0.02	0.97	0.00	0.00	0.00	0.00
31938	8	-6	7	0.47	-0.12	-1.32	0.01	0.02	0.97	0.00	0.00	0.00	0.00
31979	21	37	13	0.49	-0.09	-1.34	0.01	0.06	0.93	0.00	0.00	0.00	0.00
32020	6	77	13	0.40	-0.06	-1.26	0.01	0.03	0.95	0.00	0.00	0.00	0.00
32060	-9	58	3	0.37	-0.12	-1.27	0.01	0.04	0.95	0.00	0.00	0.00	0.00
32102	-6	29	-8	0.52	-0.18	-1.31	0.01	0.38	0.61	0.00	0.00	0.00	0.00
32143	-1	-1	3	0.62	-0.12	-1.31	0.01	0.21	0.79	0.00	0.00	0.00	0.00
32185	-8	-22	-12	0.62	-0.11	-1.26	0.00	0.09	0.90	0.00	0.00	0.00	0.00
32226	-18	-45	-28	0.55	-0.07	-1.26	0.00	0.06	0.94	0.00	0.00	0.00	0.00
32268	-21	-46	-26	0.57	-0.01	-1.25	0.00	0.02	0.97	0.00	0.00	0.00	0.00
32310	-15	-8	-15	0.56	-0.10	-1.18	0.01	0.09	0.91	0.00	0.00	0.00	0.00
32351	23	24	2	0.41	-0.09	-1.08	0.01	0.06	0.93	0.00	0.00	0.00	0.00
32392	15	-7	-4	0.41	-0.10	-1.11	0.01	0.12	0.87	0.00	0.00	0.00	0.00
32433	10	-36	-10	0.43	-0.10	-1.19	0.01	0.25	0.74	0.00	0.00	0.00	0.00
32474	5	-43	2	0.45	-0.07	-1.20	0.01	0.09	0.90	0.00	0.00	0.00	0.00
32515	1	-26	0	0.42	-0.09	-1.13	0.01	0.21	0.78	0.00	0.00	0.00	0.00
32556	2	-10	6	0.41	-0.07	-1.01	0.00	0.18	0.81	0.00	0.00	0.00	0.00
32597	5	3	3	0.35	-0.10	-0.83	0.01	0.20	0.80	0.00	0.00	0.00	0.00
32637	9	-2	0	0.24	-0.07	-0.68	0.00	0.17	0.82	0.00	0.00	0.00	0.00
32677	6	-17	2	0.20	-0.09	-0.54	0.00	0.10	0.90	0.00	0.00	0.00	0.00
32719	-3	-21	6	0.17	-0.03	-0.39	0.00	0.01	0.98	0.00	0.00	0.00	0.00
32760	-24	-15	-1	0.13	-0.05	-0.31	0.00	0.01	0.98	0.00	0.00	0.00	0.00
32802	-25	-17	-3	0.09	-0.06	-0.28	0.01	0.20	0.79	0.00	0.00	0.00	0.00
32845	-12	-19	-4	0.12	-0.08	-0.43	0.01	0.25	0.74	0.00	0.00	0.00	0.00
32890	11	-20	-6	0.07	-0.07	-0.68	0.00	0.89	0.11	0.00	0.00	0.00	0.00
32933	14	-24	-1	0.09	-0.00	-0.93	0.00	0.90	0.10	0.00	0.00	0.00	0.00
32976	-8	19	7	0.28	-0.06	-0.98	0.01	0.52	0.47	0.00	0.00	0.00	0.00
33018	-11	53	-4	0.13	-0.11	-0.90	0.01	0.11	0.89	0.00	0.00	0.00	0.00
33060	-5	10	-10	-0.04	-0.10	-0.81	0.00	0.04	0.95	0.00	0.00	0.00	0.00
33105	1	-44	6	0.03	-0.08	-0.78	0.00	0.20	0.80	0.00	0.00	0.00	0.00
33148	8	-40	11	0.15	-0.07	-0.68	0.01	0.21	0.78	0.00	0.00	0.00	0.00
33191	12	12	6	0.14	-0.05	-0.52	0.01	0.09	0.90	0.00	0.00	0.00	0.00
33233	5	33	-4	0.04	-0.05	-0.40	0.01	0.21	0.78	0.00	0.00	0.00	0.00
33275	-2	29	-8	0.07	-0.03	-0.39	0.01	0.07	0.93	0.00	0.00	0.00	0.00
33318	-8	36	-1	0.16	-0.05	-0.44	0.01	0.15	0.84	0.00	0.00	0.00	0.00
33360	-6	53	8	0.19	-0.09	-0.49	0.00	0.82	0.17	0.00	0.00	0.00	0.00
33402	2	59	1	0.28	-0.08	-0.62	0.00	0.88	0.12	0.00	0.00	0.00	0.00
33442	-2	77	-16	0.47	-0.07	-0.80	0.01	0.67	0.32	0.00	0.00	0.00	0.00
33481	-3	73	-3	0.53	-0.06	-0.96	0.00	0.73	0.27	0.00	0.00	0.00	0.00
33522	4	52	11	0.66	-0.09	-1.11	0.00	0.72	0.27	0.00	0.00	0.00	0.00
33560	10	34	-4	0.71	-0.07	-1.19	0.00	0.59	0.41	0.00	0.00	0.00	0.00
33601	-12	-6	10	0.72	-0.02	-1.23	0.00	0.20	0.80	0.00	0.00	0.00	0.00
33641	-15	-13	16	0.72	-0.10	-1.27	0.00	0.12	0.87	0.00	0.00	0.00	0.00
33680	6	7	15	0.78	-0.06	-1.28	0.00	0.02	0.98	0.00	0.00	0.00	0.00
33720	9	33	13	0.65	-0.04	-1.21	0.00	0.01	0.99	0.00	0.00	0.00	0.00
33759	12	51	18	0.71	-0.08	-1.18	0.00	0.02	0.97	0.00	0.00	0.00	0.00
33798	9	44	17	0.74	-0.08	-1.26	0.00	0.11	0.89	0.00	0.00	0.00	0.00
33837	-10	42	21	0.88	-0.14	-1.34	0.01	0.13	0.86	0.00	0.00	0.00	0.00
33876	-17	14	2	0.69	-0.23	-1.32	0.01	0.32	0.68	0.00	0.00	0.00	0.00
33916	-6	-42	-20	0.72	-0.17	-1.24	0.00	0.69	0.30	0.00	0.00	0.00	0.00
33956	-10	-73	-25	0.72	-0.06	-1.25	0.00	0.80	0.20	0.00	0.00	0.00	0.00
33996	-11	-54	-30	0.80	-0.02	-1.23	0.00	0.84	0.16	0.00	0.00	0.00	0.00
34036	-3	5	-29	0.72	-0.02	-1.11	0.00	0.58	0.42	0.00	0.00	0.00	0.00
34076	8	20	-13	0.69	0.01	-1.08	0.00	0.13	0.86	0.00	0.00	0.00	0.00
34115	6	6	-8	0.60	-0.08	-1.03	0.00	0.03	0.97	0.00	0.00	0.00	0.00
34155	11	-47	3	0.63	-0.06	-1.09	0.00	0.03	0.97	0.00	0.00	0.00	0.00
34196	3	-76	-3	0.59	-0.12	-1.17	0.01	0.35	0.65	0.00	0.00	0.00	0.00
34239	7	-72	9	0.55	-0.07	-1.20	0.00	0.80	0.20	0.00	0.00	0.00	0.00
34280	5	-61	1	0.44	-0.09	-1.16	0.00	0.98	0.02	0.00	0.00	0.00	0.00
34321	6	-57	4	0.41	-0.06	-1.13	0.00	0.98	0.02	0.00	0.00	0.00	0.00
34361	4	-55	7	0.35	-0.06	-0.99	0.00	0.80	0.20	0.00	0.00	0.00	0.00
34400	0	-64	11	0.28	-0.06	-0.84	0.00	0.29	0.70	0.00	0.00	0.00	0.00
34441	-1	-65	12	0.19	-0.06	-0.63	0.00	0.22	0.77	0.00	0.00	0.00	0.00
34482	-2	-72	16	0.11	-0.05	-0.43	0.01	0.45	0.55	0.00	0.00	0.00	0.00
34523	-11	-59	11	0.11	-0.05	-0.29	0.01	0.55	0.44	0.00	0.00	0.00	0.00
34564	-3	-27	-7	0.07	-0.09	-0.21	0.00	0.67	0.33	0.00	0.00	0.00	0.00
34605	-3	-1	-12	0.00	-0.05	-0.25	0.00	0.92	0.08	0.00	0.00	0.00	0.00
34647	-5	-5	-10	-0.04	-0.03	-0.35	0.00	0.86	0.14	0.00	0.00	0.00	0.00
34688	-7	-14	-5	-0.08	-0.08	-0.72	0.00	0.98	0.02	0.00	0.00	0.00	0.00
34730	1	-18	3	-0.00	-0.05	-0.97	0.00	1.00	0.00	0.00	0.00	0.00	0.00
34772	-0	12	-1	0.05	-0.05	-1.00	0.00	1.00	0.00	0.00	0.00	0.00	0.00
34814	-3	32	0	-0.07	-0.06	-0.95	0.00	1.00	0.00	0.00	0.00	0.00	0.00
34855	-10	15	2	-0.14	-0.07	-0.84	0.00	1.00	0.00	0.00	0.00	0.00	0.00
34895	-10	-12	-7	-0.09	-0.09	-0.72	0.00	1.00	0.00	0.00	0.00	0.00	0.00
34937	-2	-4	-11	-0.00	-0.06	-0.65	0.00	1.00	0.00	0.00	0.00	0.00	0.00
34979	-3	35	-10	0.08	-0.03	-0.56	0.00	1.00	0.00	0.00	0.00	0.00	0.00
35020	-3	58	-5	0.01	-0.04	-0.46	0.00	1.00	0.00	0.00	0.00	0.00	0.00
35061	-1	44	1	0.03	-0.04	-0.44	0.00	1.00	0.00	0.00	0.00	0.00	0.00
35101	-2	16	-3	0.04	-0.05	-0.48	0.00	1.00	0.00	0.00	0.00	0.00	0.00
35142	1	-9	1	0.10	-0.06	-0.65	0.00	1.00	0.00	0.00	0.00	0.00	0.00
35182	6	-7	3	0.23	-0.07	-0.83	0.00	1.00	0.00	0.00	0.00	0.00	0.00
35224	4	18	-2	0.24	-0.03	-0.95	0.00	1.00	0.00	0.00	0.00	0.00	0.00
35265	-5	33	9	0.21	-0.07	-1.05	0.00	1.00	0.00	0.00	0.00	0.00	0.00
35306	-5	6	9	0.22	-0.04	-1.14	0.00	1.00	0.00	0.00	0.00	0.00	0.00
35348	-6	-9	11	0.25	-0.03	-1.23	0.00	1.00	0.00	0.00	0.00	0.00	0.00
35390	3	8	13	0.31	0.00	-1.27	0.00	1.00	0.00	0.00	0.00	0.00	0.00
35431	5	39	17	0.30	-0.07	-1.34	0.00	1.00	0.00	0.00	0.00	0.00	0.00
35470	15	61	8	0.36	-0.05	-1.37	0.00	1.00	0.00	0.00	0.00	0.00	0.00
35510	-1	43	21	0.39	-0.03	-1.42	0.00	1.00	0.00	0.00	0.00	0.00	0.00
35551	-10	-2	14	0.30	-0.09	-1.42	0.00	1.00	0.00	0.00	0.00	0.00	0.00
35593	-7	-57	8	0.27	-0.08	-1.44	0.00	1.00	0.00	0.00	0.00	0.00	0.00
35636	8	-69	0	0.31	-0.09	-1.56	0.00	1.00	0.00	0.00	0.00	0.00	0.00
35677	14	-25	12	0.24	-0.08	-1.47	0.00	1.00	0.00	0.00	0.00	0.00	0.00
35719	8	14	-7	0.14	-0.08	-1.31	0.00	1.00	0.00	0.00	0.00	0.00	0.00
35760	-23	2	2	0.22	-0.07	-1.25	0.00	0.99	0.01	0.00	0.00	0.00	0.00
35801	-15	14	-16	0.32	-0.08	-1.23	0.00	0.99	0.01	0.00	0.00	0.00	0.00
35842	-3	29	9	0.35	-0.05	-1.20	0.00	0.99	0.01	0.00	0.00	0.00	0.00
35882	-13	33	6	0.37	-0.05	-1.22	0.00	1.00	0.00	0.00	0.00	0.00	0.00
35922	-14	9	-10	0.32	-0.10	-1.20	0.00	1.00	0.00	0.00	0.00	0.00	0.00
35964	0	-10	-7	0.28	-0.05	-1.17	0.00	1.00	0.00	0.00	0.00	0.00	0.00
36006	3	-22	1	0.24	-0.03	-1.16	0.00	1.00	0.00	0.00	0.00	0.00	0.00
36048	5	-14	1	0.26	-0.02	-1.18	0.00	1.00	0.00	0.00	0.00	0.00	0.00
36088	5	8	-8	0.24	-0.02	-1.16	0.00	0.98	0.02	0.00	0.00	0.00	0.00
36129	-3	15	2	0.23	-0.01	-1.11	0.00	0.95	0.04	0.00	0.00	0.00	0.00
36172	-10	8	-2	0.24	-0.04	-0.97	0.01	0.75	0.23	0.00	0.00	0.00	0.00
36213	-7	-5	-9	0.22	-0.03	-0.87	0.01	0.06	0.93	0.00	0.00	0.00	0.00
36257	-9	-21	-11	0.20	-0.01	-0.73	0.01	0.01	0.98	0.00	0.00	0.00	0.00
36298	-14	-45	-12	0.09	-0.02	-0.60	0.01	0.02	0.97	0.00	0.00	0.00	0.00
36340	-7	-62	-6	0.08	-0.06	-0.48	0.01	0.24	0.75	0.00	0.00	0.00	0.00
36381	9	-49	-4	0.06	-0.05	-0.40	0.00	0.71	0.28	0.00	0.00	0.00	0.00
36421	12	-22	-7	0.06	-0.05	-0.41	0.01	0.49	0.50	0.00	0.00	0.00	0.00
36463	10	2	-22	-0.05	-0.02	-0.57	0.01	0.50	0.50	0.00	0.00	0.00	0.00
36505	13	-13	-18	-0.22	-0.02	-0.75	0.00	0.95	0.05	0.00	0.00	0.00	0.00
36547	8	-26	4	-0.23	-0.01	-0.88	0.00	0.98	0.01	0.00	0.00	0.00	0.00
36588	7	-6	10	-0.31	-0.04	-0.93	0.00	0.95	0.05	0.00	0.00	0.00	0.00
36629	9	3	15	-0.36	-0.08	-0.86	0.01	0.34	0.65	0.00	0.00	0.00	0.00
36672	12	23	16	-0.24	-0.07	-0.78	0.01	0.03	0.96	0.00	0.00	0.00	0.00
36713	18	72	11	-0.14	-0.10	-0.61	0.01	0.10	0.89	0.00	0.00	0.00	0.00
36753	20	123	7	-0.08	-0.08	-0.40	0.00	0.83	0.16	0.00	0.00	0.00	0.00
36794	19	145	9	-0.00	-0.07	-0.18	0.00	0.92	0.08	0.00	0.00	0.00	0.00
36835	18	162	5	0.16	-0.09	-0.11	0.00	0.98	0.02	0.00	0.00	0.00	0.00
36874	23	213	-16	0.44	-0.11	-0.04	0.00	0.99	0.01	0.00	0.00	0.00	0.00
36915	17	287	-40	0.70	-0.06	0.07	0.00	0.99	0.01	0.00	0.00	0.00	0.00
36954	-2	385	-32	0.95	-0.06	0.21	0.00	0.99	0.01	0.00	0.00	0.00	0.00
36996	-19	405	-19	0.88	-0.02	0.47	0.09	0.70	0.21	0.00	0.00	0.00	0.00
37037	-37	408	-37	0.84	-0.08	0.91	0.47	0.02	0.51	0.00	0.00	0.00	0.00
37079	-26	343	-5	0.92	-0.09	1.26	0.62	0.00	0.38	0.00	0.00	0.00	0.00
37120	-12	340	24	0.94	-0.11	1.54	0.68	0.00	0.32	0.00	0.00	0.00	0.00
37160	-3	349	-42	0.91	-0.06	1.70	0.74	0.00	0.26	0.00	0.00	0.00	0.00
37201	-22	354	-76	0.87	-0.10	1.92	0.84	0.00	0.16	0.00	0.00	0.00	0.00
37241	-32	336	-21	0.64	-0.02	2.01	0.94	0.00	0.06	0.00	0.00	0.00	0.00
37282	-24	265	22	0.48	-0.06	1.83	0.98	0.00	0.02	0.00	0.00	0.00	0.01
37320	-2	208	44	0.49	-0.09	1.67	0.98	0.00	0.01	0.00	0.00	0.00	0.01
37360	9	193	56	0.52	-0.04	1.54	0.99	0.00	0.01	0.00	0.00	0.00	0.01
37399	14	191	60	0.48	-0.07	1.40	0.89	0.00	0.00	0.00	0.00	0.00	0.11
37437	35	176	56	0.37	-0.05	1.22	0.26	0.00	0.00	0.00	0.00	0.00	0.74
37476	23	128	43	0.24	0.00	1.13	0.01	0.00	0.00	0.00	0.00	0.00	0.99
37514	8	59	25	0.18	-0.00	0.97	0.00	0.00	0.00	0.00	0.00	0.00	1.00
37553	3	9	6	0.22	-0.01	0.81	0.00	0.00	0.00	0.00	0.00	0.00	1.00
37591	2	-13	-8	0.16	-0.00	0.78	0.00	0.00	0.00	0.00	0.00	0.00	1.00
37631	3	-50	-26	0.13	0.02	0.77	0.00	0.00	0.00	0.00	0.00	0.00	1.00
37670	0	-91	-44	0.14	0.03	0.79	0.00	0.00	0.00	0.00	0.00	0.00	1.00
37709	3	-127	-46	0.11	0.05	0.88	0.00	0.00	0.00	0.00	0.00	0.00	1.00
37748	4	-161	-35	0.11	0.05	0.90	0.00	0.00	0.00	0.00	0.00	0.00	1.00
37787	-11	-191	-24	0.10	0.04	1.03	0.00	0.00	0.00	0.00	0.00	0.00	1.00
37826	-16	-208	-11	0.20	0.01	1.09	0.00	0.00	0.00	0.00	0.00	0.00	1.00
37865	-11	-192	-5	0.27	-0.02	1.30	0.00	0.00	0.00	0.00	0.00	0.00	1.00
37905	-6	-148	-5	0.28	-0.06	1.24	0.00	0.00	0.00	0.00	0.00	0.00	1.00
37945	-6	-110	-6	0.22	-0.06	1.27	0.00	0.00	0.00	0.00	0.00	0.00	1.00
37985	1	-97	-8	0.21	-0.06	1.29	0.00	0.00	0.00	0.00	0.00	0.00	1.00
38025	2	-74	-14	0.23	-0.07	1.17	0.00	0.00	0.00	0.00	0.00	0.00	1.00
38064	11	-40	-10	0.22	-0.04	1.19	0.00	0.00	0.00	0.00	0.00	0.00	1.00
38104	1	-6	-13	0.23	-0.06	1.09	0.00	0.00	0.00	0.00	0.00	0.00	1.00
38146	5	17	3	0.17	-0.05	1.09	0.00	0.00	0.00	0.00	0.00	0.00	1.00
38187	4	31	7	0.28	-0.05	1.01	0.00	0.00	0.00	0.00	0.00	0.00	1.00
38228	6	51	19	0.24	-0.02	1.06	0.00	0.00	0.00	0.00	0.00	0.00	1.00
38268	3	46	13	0.22	-0.03	1.02	0.00	0.00	0.00	0.00	0.00	0.00	1.00
38309	5	35	17	0.24	-0.01	1.02	0.00	0.00	0.00	0.00	0.00	0.00	1.00
38350	0	27	18	0.27	-0.01	1.00	0.00	0.00	0.00	0.00	0.00	0.00	1.00
38391	-2	35	14	0.29	-0.02	0.99	0.00	0.00	0.00	0.00	0.00	0.00	1.00
38433	-1	23	6	0.33	-0.03	0.72	0.00	0.00	0.00	0.00	0.00	0.00	1.00
38472	-1	33	-3	0.28	-0.04	0.91	0.00	0.00	0.00	0.00	0.00	0.00	1.00
38512	2	35	-1	0.29	-0.03	0.98	0.00	0.00	0.00	0.00	0.00	0.00	1.00
38552	6	39	8	0.27	-0.01	0.98	0.00	0.16	0.00	0.00	0.00	0.00	0.84
38591	4	42	12	0.23	0.02	0.97	0.00	0.90	0.00	0.00	0.00	0.00	0.10
38632	1	48	17	0.24	-0.00	0.98	0.00	0.98	0.00	0.00	0.00	0.00	0.02
38672	3	57	24	0.15	-0.00	0.99	0.00	0.99	0.00	0.00	0.00	0.00	0.01
38713	1	58	24	0.12	-0.00	0.99	0.00	1.00	0.00	0.00	0.00	0.00	0.00
38754	-5	65	6	0.11	-0.01	1.00	0.00	1.00	0.00	0.00	0.00	0.00	0.00
38795	-18	51	-11	-0.21	0.08	1.02	0.00	1.00	0.00	0.00	0.00	0.00	0.00
38837	-26	10	-9	-0.18	-0.06	0.99	0.00	1.00	0.00	0.00	0.00	0.00	0.00
38879	-18	-21	-6	-0.08	-0.15	1.01	0.00	1.00	0.00	0.00	0.00	0.00	0.00
38922	6	-26	-4	0.12	-0.18	1.00	0.00	1.00	0.00	0.00	0.00	0.00	0.00
38964	27	-6	-6	0.19	-0.13	0.99	0.00	1.00	0.00	0.00	0.00	0.00	0.00
39006	30	19	-4	0.09	0.08	1.03	0.00	1.00	0.00	0.00	0.00	0.00	0.00
39047	2	9	-6	-0.08	0.15	0.98	0.00	1.00	0.00	0.00	0.00	0.00	0.00
39088	-27	-8	-1	-0.01	0.07	1.00	0.00	1.00	0.00	0.00	0.00	0.00	0.00
39131	-23	-5	4	0.09	-0.15	0.99	0.00	1.00	0.00	0.00	0.00	0.00	0.00
39171	-2	6	1	0.08	-0.16	0.99	0.00	1.00	0.00	0.00	0.00	0.00	0.00
39211	18	9	0	0.01	-0.14	1.00	0.00	1.00	0.00	0.00	0.00	0.00	0.00
39251	19	-3	1	-0.05	0.09	1.00	0.00	1.00	0.00	0.00	0.00	0.00	0.00
39291	-3	-12	-0	0.06	0.08	1.00	0.00	1.00	0.00	0.00	0.00	0.00	0.00
39333	-15	2	2	0.15	-0.04	1.01	0.00	1.00	0.00	0.00	0.00	0.00	0.00
39372	-5	14	-0	0.03	-0.13	1.01	0.00	1.00	0.00	0.00	0.00	0.00	0.00
39412	6	4	-0	-0.07	-0.05	1.00	0.00	1.00	0.00	0.00	0.00	0.00	0.00
39454	3	-11	1	0.01	-0.00	1.00	0.00	1.00	0.00	0.00	0.00	0.00	0.00
39494	-1	-5	-0	0.12	-0.03	1.00	0.00	1.00	0.00	0.00	0.00	0.00	0.00
39537	-2	10	0	0.04	-0.04	1.00	0.00	1.00	0.00	0.00	0.00	0.00	0.00
39578	-2	3	-0	-0.03	-0.04	1.01	0.00	0.98	0.02	0.00	0.00	0.00	0.00
39619	0	-6	1	0.03	-0.05	1.01	0.00	0.95	0.05	0.00	0.00	0.00	0.00
39662	2	-2	0	0.08	-0.03	1.00	0.00	0.93	0.06	0.01	0.00	0.00	0.00
39705	-0	4	0	0.05	-0.02	1.00	0.00	0.94	0.04	0.01	0.00	0.00	0.00
39748	-3	3	0	0.01	-0.05	1.01	0.00	0.98	0.02	0.00	0.00	0.00	0.00
39790	1	-2	0	0.03	-0.06	0.99	0.00	0.97	0.02	0.01	0.00	0.00	0.00
39834	2	-1	0	0.05	-0.03	0.99	0.01	0.81	0.15	0.04	0.00	0.00	0.00
39876	-0	2	0	0.04	-0.02	1.01	0.02	0.36	0.57	0.05	0.00	0.00	0.00
39920	-2	1	0	0.03	-0.04	1.01	0.02	0.14	0.80	0.04	0.00	0.00	0.00
39962	0	-0	0	0.03	-0.05	1.01	0.02	0.06	0.87	0.05	0.00	0.00	0.00
40005	1	-0	0	0.04	-0.03	1.00	0.02	0.08	0.85	0.05	0.00	0.00	0.00
40046	-1	1	0	0.04	-0.03	1.00	0.03	0.06	0.86	0.06	0.00	0.00	0.00
40088	-1	1	0	0.03	-0.04	1.00	0.03	0.05	0.83	0.09	0.01	0.00	0.00
40130	-0	0	0	0.03	-0.04	1.01	0.03	0.06	0.73	0.17	0.01	0.00	0.00
40174	0	-0	0	0.04	-0.03	1.00	0.04	0.06	0.54	0.36	0.01	0.00	0.00
40216	-1	0	0	0.04	-0.03	1.01	0.03	0.05	0.42	0.49	0.01	0.00	0.00
40258	-1	1	0	0.04	-0.04	1.00	0.03	0.05	0.36	0.56	0.01	0.00	0.00
40298	-0	0	0	0.03	-0.04	1.00	0.03	0.04	0.24	0.69	0.01	0.00	0.00
40338	-0	0	0	0.04	-0.04	1.00	0.03	0.03	0.17	0.76	0.01	0.00	0.00
40379	-0	1	0	0.04	-0.04	1.01	0.02	0.02	0.07	0.87	0.01	0.01	0.00
40419	-0	1	0	0.04	-0.04	1.02	0.03	0.03	0.10	0.79	0.02	0.01	0.01
40459	0	1	0	0.03	-0.04	1.01	0.04	0.03	0.10	0.78	0.02	0.01	0.01
40499	0	0	0	0.03	-0.03	1.02	0.03	0.03	0.08	0.83	0.01	0.01	0.00
40539	-1	0	0	0.04	-0.04	1.00	0.05	0.03	0.10	0.78	0.02	0.01	0.01
40580	-1	1	0	0.04	-0.04	0.99	0.05	0.04	0.10	0.77	0.02	0.01	0.01
40620	-0	1	0	0.03	-0.04	1.00	0.04	0.03	0.08	0.81	0.01	0.01	0.01
40661	-0	0	0	0.03	-0.03	1.00	0.04	0.03	0.08	0.82	0.01	0.01	0.01
40702	-0	0	0	0.04	-0.04	1.00	0.04	0.03	0.07	0.83	0.01	0.01	0.01
40743	-0	1	0	0.03	-0.04	1.00	0.04	0.03	0.07	0.84	0.01	0.01	0.00
40783	-0	1	0	0.04	-0.03	1.01	0.04	0.03	0.07	0.84	0.01	0.01	0.00
40823	-0	0	0	0.04	-0.04	1.00	0.04	0.03	0.07	0.84	0.01	0.01	0.00
40862	-0	0	0	0.04	-0.04	1.01	0.03	0.03	0.06	0.86	0.01	0.01	0.00
40904	-0	1	0	0.04	-0.04	1.00	0.04	0.03	0.06	0.85	0.01	0.01	0.00
40945	-0	1	0	0.03	-0.03	1.00	0.03	0.03	0.06	0.86	0.01	0.01	0.00
40986	-0	0	0	0.04	-0.04	1.00	0.03	0.03	0.05	0.87	0.01	0.01	0.00
41027	-0	1	0	0.03	-0.04	1.00	0.03	0.03	0.06	0.86	0.01	0.01	0.00
41069	-0	0	0	0.03	-0.04	1.00	0.03	0.03	0.06	0.86	0.01	0.01	0.00
41109	-0	0	0	0.03	-0.03	1.00	0.04	0.03	0.06	0.86	0.01	0.01	0.00
41148	-0	0	0	0.04	-0.04	1.00	0.03	0.03	0.06	0.86	0.01	0.01	0.00
41188	-0	0	0	0.04	-0.04	1.00	0.04	0.03	0.06	0.86	0.01	0.01	0.00
41228	-0	0	0	0.04	-0.04	1.00	0.04	0.03	0.06	0.86	0.01	0.01	0.00
41270	-0	0	0	0.04	-0.04	1.00	0.04	0.03	0.06	0.86	0.01	0.01	0.00
41310	-0	0	0	0.04	-0.04	1.01	0.04	0.03	0.06	0.86	0.01	0.01	0.00
41351	-0	0	0	0.03	-0.04	1.01	0.04	0.03	0.06	0.86	0.01	0.01	0.00
41391	-0	0	0	0.03	-0.04	1.00	0.04	0.03	0.06	0.86	0.01	0.01	0.00
41432	-0	0	0	0.03	-0.04	1.01	0.04	0.03	0.06	0.86	0.01	0.01	0.00
41473	-0	1	0	0.04	-0.04	1.00	0.03	0.03	0.06	0.86	0.01	0.01	0.00
41514	-0	1	0	0.03	-0.04	1.00	0.03	0.03	0.06	0.86	0.01	0.01	0.00
41553	-0	0	0	0.03	-0.04	1.00	0.04	0.03	0.06	0.86	0.01	0.01	0.00
41595	-0	0	0	0.04	-0.04	1.00	0.03	0.03	0.06	0.86	0.01	0.01	0.00
41636	-0	0	0	0.03	-0.04	1.00	0.03	0.03	0.06	0.86	0.01	0.01	0.00
41676	-0	1	0	0.04	-0.04	1.00	0.03	0.03	0.06	0.86	0.01	0.01	0.00
41716	-0	0	0	0.03	-0.03	1.00	0.03	0.03	0.06	0.86	0.01	0.01	0.00
41756	-0	0	0	0.04	-0.04	1.00	0.03	0.03	0.06	0.86	0.01	0.01	0.00
41796	-0	0	0	0.04	-0.04	1.00	0.03	0.03	0.06	0.86	0.01	0.01	0.00
41835	-0	0	0	0.03	-0.04	1.00	0.03	0.03	0.06	0.86	0.01	0.01	0.00
41875	-0	0	0	0.04	-0.04	1.00	0.03	0.03	0.06	0.86	0.01	0.01	0.00
41915	-0	0	0	0.04	-0.04	1.00	0.03	0.03	0.06	0.86	0.01	0.01	0.00
41955	-0	1	0	0.04	-0.04	1.00	0.03	0.03	0.06	0.86	0.01	0.01	0.00
41995	-0	1	0	0.04	-0.04	1.00	0.03	0.03	0.06	0.86	0.01	0.01	0.00
42035	-0	0	0	0.04	-0.04	1.00	0.03	0.03	0.06	0.86	0.01	0.01	0.00
42075	-0	0	0	0.03	-0.04	1.00	0.03	0.03	0.06	0.86	0.01	0.01	0.00
42116	-0	0	0	0.04	-0.04	1.00	0.03	0.03	0.06	0.86	0.01	0.01	0.00
42155	-0	0	0	0.04	-0.04	1.00	0.03	0.03	0.06	0.86	0.01	0.01	0.00
42195	-0	0	0	0.04	-0.04	1.00	0.03	0.03	0.06	0.86	0.01	0.01	0.00
42234	-0	1	0	0.03	-0.04	1.00	0.03	0.03	0.06	0.86	0.01	0.01	0.00
42274	-0	0	0	0.04	-0.04	1.00	0.03	0.03	0.06	0.86	0.01	0.01	0.00
42315	-0	0	0	0.04	-0.04	1.00	0.03	0.03	0.06	0.86	0.01	0.01	0.00
42355	-0	0	0	0.04	-0.04	1.00	0.03	0.03	0.06	0.86	0.01	0.01	0.00
42395	-0	0	0	0.03	-0.04	1.00	0.03	0.03	0.06	0.86	0.01	0.01	0.00
42435	-0	0	0	0.03	-0.03	1.01	0.03	0.03	0.06	0.86	0.01	0.01	0.00
42474	-0	0	0	0.04	-0.04	1.00	0.03	0.03	0.06	0.86	0.01	0.01	0.00
42514	-0	0	0	0.04	-0.04	1.00	0.03	0.03	0.06	0.86	0.01	0.01	0.00
42553	-0	1	0	0.03	-0.04	1.01	0.03	0.03	0.06	0.86	0.01	0.01	0.00
42593	-0	0	0	0.04	-0.04	1.01	0.03	0.03	0.06	0.86	0.01	0.01	0.00
42634	-0	1	0	0.03	-0.04	1.00	0.03	0.03	0.06	0.86	0.01	0.01	0.00
42675	-0	1	0	0.04	-0.04	1.01	0.03	0.03	0.06	0.86	0.01	0.01	0.00
42716	-0	0	0	0.04	-0.04	1.00	0.03	0.03	0.06	0.86	0.01	0.01	0.00
42756	-0	0	0	0.04	-0.04	1.00	0.03	0.03	0.06	0.86	0.01	0.01	0.00
42796	-0	0	0	0.04	-0.04	1.01	0.03	0.03	0.06	0.86	0.01	0.01	0.00
42838	-0	0	0	0.04	-0.04	1.00	0.03	0.03	0.06	0.86	0.01	0.01	0.00
42878	-0	0	0	0.03	-0.04	1.00	0.03	0.03	0.06	0.86	0.01	0.01	0.00
42919	-0	0	0	0.03	-0.03	1.00	0.03	0.03	0.06	0.86	0.01	0.01	0.00
42959	-0	0	0	0.03	-0.03	1.01	0.03	0.03	0.06	0.86	0.01	0.01	0.00
43000	-0	0	0	0.03	-0.04	1.00	0.03	0.03	0.06	0.86	0.01	0.01	0.00
43041	-0	0	0	0.03	-0.04	1.00	0.03	0.03	0.06	0.86	0.01	0.01	0.00
43081	-0	0	0	0.04	-0.04	1.00	0.03	0.03	0.06	0.86	0.01	0.01	0.00
43121	-0	0	0	0.04	-0.04	1.01	0.03	0.03	0.06	0.86	0.01	0.01	0.00
43162	-0	0	0	0.04	-0.04	1.01	0.03	0.03	0.06	0.86	0.01	0.01	0.00
43203	-0	0	0	0.04	-0.04	1.00	0.03	0.03	0.06	0.86	0.01	0.01	0.00
43245	-0	0	0	0.04	-0.04	1.01	0.03	0.03	0.06	0.86	0.01	0.01	0.00
43286	-0	0	0	0.04	-0.03	1.00	0.03	0.03	0.06	0.86	0.01	0.01	0.00
43328	-0	0	0	0.04	-0.04	1.00	0.03	0.03	0.06	0.86	0.01	0.01	0.00
43368	-0	0	0	0.03	-0.04	1.00	0.03	0.03	0.06	0.86	0.01	0.01	0.00
43408	-0	0	0	0.04	-0.04	1.00	0.03	0.03	0.06	0.86	0.01	0.01	0.00
43450	-0	0	0	0.03	-0.04	1.00	0.03	0.03	0.06	0.86	0.01	0.01	0.00
43490	-0	0	0	0.03	-0.04	1.00	0.03	0.03	0.06	0.86	0.01	0.01	0.00
43531	-0	0	0	0.03	-0.04	1.00	0.03	0.03	0.06	0.86	0.01	0.01	0.00
43571	-0	0	0	0.04	-0.04	1.00	0.03	0.03	0.06	0.86	0.01	0.01	0.00
43611	-0	0	0	0.04	-0.03	1.00	0.03	0.03	0.06	0.86	0.01	0.01	0.00
43653	-0	0	0	0.03	-0.04	1.00	0.03	0.03	0.06	0.86	0.01	0.01	0.00
43694	-0	0	0	0.04	-0.04	1.00	0.03	0.03	0.06	0.86	0.01	0.01	0.00
43735	-0	1	0	0.04	-0.04	1.00	0.03	0.03	0.06	0.86	0.01	0.01	0.00
43774	-0	0	0	0.03	-0.04	1.00	0.03	0.03	0.06	0.86	0.01	0.01	0.00
43815	-0	0	0	0.04	-0.03	1.00	0.03	0.03	0.06	0.86	0.01	0.01	0.00
43856	-0	1	0	0.03	-0.04	1.00	0.03	0.03	0.06	0.86	0.01	0.01	0.00
43896	-0	0	0	0.04	-0.04	1.00	0.03	0.03	0.06	0.86	0.01	0.01	0.00
43937	-0	0	0	0.04	-0.04	1.00	0.03	0.03	0.06	0.86	0.01	0.01	0.00
43977	-0	1	0	0.04	-0.04	1.00	0.03	0.03	0.06	0.86	0.01	0.01	0.00
44019	-0	0	0	0.04	-0.04	1.01	0.03	0.03	0.06	0.86	0.01	0.01	0.00
44060	-0	0	0	0.04	-0.04	1.01	0.03	0.03	0.06	0.86	0.01	0.01	0.00
44101	-0	0	0	0.04	-0.04	1.00	0.03	0.03	0.06	0.86	0.01	0.01	0.00
44143	-0	1	0	0.04	-0.03	1.00	0.03	0.03	0.06	0.86	0.01	0.01	0.00
44183	-0	0	0	0.03	-0.04	1.00	0.03	0.03	0.06	0.86	0.01	0.01	0.00
44224	-0	1	0	0.03	-0.04	1.01	0.03	0.03	0.06	0.86	0.01	0.01	0.00
44265	-0	0	0	0.04	-0.04	1.00	0.03	0.03	0.06	0.86	0.01	0.01	0.00
44305	-0	0	0	0.04	-0.04	1.00	0.03	0.03	0.06	0.86	0.01	0.01	0.00
44346	-0	0	0	0.04	-0.04	1.01	0.03	0.03	0.06	0.86	0.01	0.01	0.00
44388	-0	0	0	0.03	-0.04	1.01	0.03	0.03	0.06	0.86	0.01	0.01	0.00
44428	-0	0	0	0.04	-0.03	1.00	0.03	0.03	0.06	0.86	0.01	0.01	0.00
44469	-0	0	0	0.04	-0.04	1.01	0.03	0.03	0.06	0.86	0.01	0.01	0.00
44509	-0	0	0	0.04	-0.04	1.00	0.03	0.03	0.06	0.86	0.01	0.01	0.00
44550	-0	0	0	0.04	-0.04	1.00	0.03	0.03	0.06	0.86	0.01	0.01	0.00
44590	-0	0	0	0.04	-0.04	1.00	0.03	0.03	0.06	0.86	0.01	0.01	0.00
44630	-0	1	0	0.04	-0.04	1.00	0.03	0.03	0.06	0.86	0.01	0.01	0.00
44672	-0	1	0	0.04	-0.04	1.00	0.03	0.03	0.06	0.86	0.01	0.01	0.00
44712	-0	0	0	0.04	-0.04	1.00	0.03	0.03	0.06	0.86	0.01	0.01	0.00
44753	-0	0	0	0.03	-0.04	1.00	0.03	0.03	0.06	0.86	0.01	0.01	0.00
44793	-0	0	0	0.04	-0.04	1.00	0.03	0.03	0.06	0.86	0.01	0.01	0.00
44834	-0	0	0	0.04	-0.04	1.00	0.03	0.03	0.06	0.86	0.01	0.01	0.00
44875	-0	0	0	0.04	-0.03	1.00	0.03	0.03	0.06	0.86	0.01	0.01	0.00
44915	-0	0	0	0.04	-0.04	1.00	0.03	0.03	0.06	0.86	0.01	0.01	0.00
44954	-0	0	0	0.04	-0.04	1.00	0.03	0.03	0.06	0.86	0.01	0.01	0.00
44996	-0	1	0	0.04	-0.04	1.00	0.03	0.03	0.06	0.86	0.01	0.01	0.00
45036	-0	0	0	0.04	-0.04	1.01	0.03	0.03	0.06	0.86	0.01	0.01	0.00
45076	-0	0	0	0.04	-0.04	1.00	0.03	0.03	0.06	0.86	0.01	0.01	0.00
45116	-0	0	0	0.04	-0.04	1.00	0.03	0.03	0.06	0.86	0.01	0.01	0.00
45157	-0	0	0	0.03	-0.04	1.00	0.03	0.03	0.06	0.86	0.01	0.01	0.00
45198	-0	0	0	0.04	-0.04	1.00	0.03	0.03	0.06	0.86	0.01	0.01	0.00
45239	-0	0	0	0.04	-0.04	1.01	0.03	0.03	0.06	0.86	0.01	0.01	0.00
45281	-0	0	0	0.04	-0.03	1.00	0.03	0.03	0.06	0.86	0.01	0.01	0.00
45322	-0	0	0	0.04	-0.04	1.00	0.03	0.03	0.06	0.86	0.01	0.01	0.00
45364	-0	0	0	0.04	-0.04	1.00	0.03	0.03	0.06	0.86	0.01	0.01	0.00
45404	-0	0	0	0.04	-0.03	1.00	0.03	0.03	0.06	0.86	0.01	0.01	0.00
45443	-0	0	0	0.04	-0.04	1.01	0.03	0.03	0.06	0.86	0.01	0.01	0.00
45483	-0	1	0	0.04	-0.04	1.00	0.03	0.03	0.06	0.86	0.01	0.01	0.00
45523	-0	1	0	0.04	-0.04	1.00	0.03	0.03	0.06	0.86	0.01	0.01	0.00
45563	-0	1	0	0.03	-0.04	1.00	0.03	0.03	0.06	0.86	0.01	0.01	0.00
45605	-0	0	0	0.03	-0.04	1.00	0.03	0.03	0.06	0.86	0.01	0.01	0.00
45646	-0	0	0	0.04	-0.04	1.00	0.03	0.03	0.06	0.86	0.01	0.01	0.00
45688	-0	0	0	0.04	-0.04	1.00	0.03	0.03	0.06	0.86	0.01	0.01	0.00
45729	-0	0	0	0.04	-0.04	1.00	0.03	0.03	0.06	0.86	0.01	0.01	0.00
45769	-0	0	0	0.03	-0.04	1.00	0.03	0.03	0.06	0.86	0.01	0.01	0.00
45811	-0	0	0	0.04	-0.04	1.00	0.03	0.03	0.06	0.86	0.01	0.01	0.00
45851	-0	0	0	0.04	-0.04	1.00	0.03	0.03	0.06	0.86	0.01	0.01	0.00
45892	-0	0	0	0.04	-0.04	1.00	0.03	0.03	0.06	0.86	0.01	0.01	0.00
45931	-0	0	0	0.04	-0.04	1.00	0.03	0.03	0.06	0.86	0.01	0.01	0.00
45971	-0	0	0	0.03	-0.04	1.00	0.03	0.03	0.06	0.86	0.01	0.01	0.00
46012	-0	0	0	0.04	-0.04	1.00	0.03	0.03	0.06	0.86	0.01	0.01	0.00
46051	-0	0	0	0.04	-0.04	1.00	0.03	0.03	0.06	0.86	0.01	0.01	0.00
46092	-0	0	0	0.04	-0.04	1.00	0.03	0.03	0.06	0.86	0.01	0.01	0.00
46131	-0	0	0	0.04	-0.04	1.00	0.03	0.03	0.06	0.86	0.01	0.01	0.00
46171	-0	1	0	0.04	-0.04	1.00	0.03	0.03	0.06	0.86	0.01	0.01	0.00
46212	-0	0	0	0.04	-0.04	1.00	0.03	0.03	0.06	0.86	0.01	0.01	0.00
46253	-0	0	0	0.04	-0.04	1.00	0.03	0.03	0.06	0.86	0.01	0.01	0.00
46295	-0	1	0	0.04	-0.04	1.00	0.03	0.03	0.06	0.86	0.01	0.01	0.00
46336	-0	0	0	0.03	-0.04	1.00	0.03	0.03	0.06	0.86	0.01	0.01	0.00
46379	-0	0	0	0.04	-0.04	1.00	0.03	0.03	0.06	0.86	0.01	0.01	0.00
46422	-0	0	0	0.04	-0.04	1.00	0.03	0.03	0.06	0.86	0.01	0.01	0.00
46464	-0	0	0	0.03	-0.04	1.00	0.03	0.03	0.06	0.86	0.01	0.01	0.00
46508	-0	0	0	0.03	-0.04	1.00	0.03	0.03	0.06	0.86	0.01	0.01	0.00
46550	-0	0	0	0.04	-0.04	1.01	0.03	0.03	0.06	0.86	0.01	0.01	0.00
46592	-0	0	0	0.04	-0.04	1.00	0.03	0.03	0.06	0.86	0.01	0.01	0.00
46634	-0	0	0	0.03	-0.04	1.00	0.03	0.03	0.06	0.86	0.01	0.01	0.00
46677	-0	0	0	0.04	-0.04	1.00	0.03	0.03	0.06	0.86	0.01	0.01	0.00
46718	-0	0	0	0.04	-0.04	1.01	0.03	0.03	0.06	0.86	0.01	0.01	0.00
46759	-0	0	0	0.04	-0.04	1.00	0.03	0.03	0.06	0.86	0.01	0.01	0.00
46802	-0	0	0	0.03	-0.04	1.00	0.03	0.03	0.06	0.86	0.01	0.01	0.00
46845	-0	0	0	0.04	-0.04	1.00	0.03	0.03	0.06	0.86	0.01	0.01	0.00
