Time	Gx	Gy	Gz	Ax	Ay	Az
7440	1.27	0.06	-0.06	-0.61	-0.11	-0.78
7459	1.25	1.33	0.82	-0.63	-0.11	-0.76
7479	1.77	3.40	1.95	-0.61	-0.12	-0.72
7497	3.63	3.80	1.68	-0.59	-0.12	-0.70
7517	4.52	6.56	3.25	-0.55	-0.11	-0.70
7536	3.74	13.57	4.27	-0.52	-0.11	-0.69
7554	3.01	18.19	0.35	-0.52	-0.11	-0.65
7574	4.20	14.45	-6.87	-0.53	-0.12	-0.60
7593	7.13	2.84	-11.05	-0.47	-0.12	-0.55
7613	9.38	-5.72	-11.14	-0.34	-0.09	-0.51
7632	9.78	-3.56	-11.83	-0.24	-0.08	-0.48
7651	9.74	-0.21	-13.17	-0.17	-0.06	-0.44
7673	9.23	16.30	-16.63	-0.12	-0.06	-0.41
7692	9.45	23.70	-15.70	-0.11	-0.04	-0.40
7712	6.68	39.90	-10.36	-0.18	-0.03	-0.40
7731	2.33	49.65	-4.71	-0.22	-0.03	-0.40
7750	-2.49	49.88	1.43	-0.29	-0.03	-0.42
7770	-6.76	45.87	6.62	-0.33	-0.04	-0.50
7790	-8.80	40.15	10.35	-0.40	-0.07	-0.59
7810	-8.24	27.47	13.24	-0.46	-0.08	-0.67
7829	-8.56	8.87	17.26	-0.48	-0.10	-0.79
7848	-5.43	-7.10	12.16	-0.50	-0.14	-0.92
7868	0.17	-16.05	0.81	-0.45	-0.13	-1.01
7888	3.46	-18.95	-1.48	-0.46	-0.14	-1.06
7908	8.56	-21.38	0.17	-0.48	-0.17	-1.13
7927	16.80	-17.88	-2.04	-0.49	-0.18	-1.16
7947	23.88	-7.86	-3.74	-0.39	-0.12	-1.13
7967	25.33	1.27	-1.14	-0.40	-0.10	-1.11
7987	24.63	18.72	9.34	-0.48	-0.11	-1.08
8006	22.38	26.37	14.88	-0.54	-0.11	-1.05
8025	19.41	22.89	17.50	-0.58	-0.14	-1.00
8044	13.53	17.75	21.94	-0.58	-0.11	-0.99
8062	2.85	10.74	20.48	-0.63	-0.12	-0.99
8081	-3.16	-1.72	3.57	-0.62	-0.16	-1.01
8101	-5.46	-7.20	-13.49	-0.55	-0.12	-1.05
8122	-11.06	-2.20	-17.12	-0.55	-0.10	-1.05
8142	-16.88	1.48	-13.78	-0.56	-0.07	-1.06
8163	-20.32	4.27	-13.06	-0.53	-0.14	-1.10
8182	-14.50	13.09	-13.82	-0.50	-0.17	-1.12
8202	-8.35	23.30	-11.46	-0.53	-0.13	-1.11
8222	-6.52	27.65	-9.40	-0.57	-0.10	-1.12
8242	-5.80	26.52	-8.62	-0.50	-0.13	-1.12
8262	-4.10	32.03	-10.47	-0.43	-0.15	-1.11
8282	-3.22	36.82	-11.80	-0.51	-0.13	-1.12
8303	-4.35	35.08	-9.96	-0.61	-0.16	-1.13
8322	-4.27	27.83	-7.48	-0.57	-0.15	-1.13
8342	-3.97	13.61	-5.40	-0.56	-0.15	-1.15
8362	-4.36	3.63	-3.19	-0.56	-0.17	-1.18
8381	-3.42	-3.66	3.51	-0.53	-0.20	-1.19
8402	0.56	-8.76	0.70	-0.51	-0.24	-1.24
8421	7.98	-14.63	-11.73	-0.60	-0.25	-1.30
8442	16.53	-21.97	-16.17	-0.58	-0.23	-1.33
8461	19.24	-19.00	-8.12	-0.47	-0.14	-1.34
8481	13.11	-7.35	5.10	-0.50	-0.11	-1.34
8501	7.45	-1.48	14.37	-0.60	-0.19	-1.35
8521	8.13	0.96	11.25	-0.60	-0.21	-1.34
8540	5.28	3.20	7.54	-0.64	-0.17	-1.31
8558	-1.01	-2.03	10.09	-0.68	-0.21	-1.28
8579	-2.30	-9.54	6.76	-0.63	-0.25	-1.25
8599	-0.12	-8.67	-4.68	-0.54	-0.19	-1.23
8620	-3.54	-1.80	-9.03	-0.52	-0.13	-1.21
8640	-9.14	3.48	-5.68	-0.54	-0.17	-1.16
8660	-9.06	4.90	-3.16	-0.54	-0.22	-1.13
8680	-5.72	4.20	-3.42	-0.56	-0.20	-1.11
8699	-5.89	1.13	-5.58	-0.57	-0.16	-1.08
8720	-7.64	-3.75	-7.22	-0.54	-0.14	-1.04
8740	-10.53	-5.17	-4.96	-0.46	-0.10	-1.04
8761	-16.65	-0.67	-1.01	-0.45	-0.11	-1.05
8781	-17.23	2.67	1.37	-0.45	-0.18	-1.04
8801	-11.44	5.42	-1.13	-0.44	-0.19	-1.03
8820	-8.50	6.99	-2.55	-0.45	-0.15	-1.04
8841	-6.59	8.07	-4.06	-0.47	-0.15	-1.05
8860	-5.25	4.65	-3.78	-0.48	-0.16	-1.06
8880	-0.79	0.64	-4.03	-0.48	-0.17	-1.08
8900	2.61	0.87	-2.85	-0.49	-0.13	-1.10
8920	3.57	-0.64	-2.78	-0.52	-0.14	-1.10
8940	4.81	-4.52	-2.94	-0.52	-0.15	-1.08
8960	5.51	-7.84	-2.72	-0.51	-0.14	-1.09
8980	4.79	-8.59	-0.37	-0.51	-0.15	-1.10
8999	4.85	-8.41	1.21	-0.49	-0.14	-1.09
9020	4.59	-5.17	1.91	-0.46	-0.13	-1.07
9039	1.85	0.31	4.91	-0.43	-0.11	-1.05
9057	-1.95	6.76	6.47	-0.40	-0.12	-1.01
9077	-2.78	13.20	4.71	-0.38	-0.14	-0.95
9096	-1.65	18.75	4.00	-0.36	-0.14	-0.87
9117	-2.30	22.31	7.39	-0.33	-0.11	-0.80
9136	-5.94	27.53	6.47	-0.25	-0.10	-0.75
9155	-7.61	30.70	3.92	-0.26	-0.08	-0.69
9175	-11.80	33.07	0.64	-0.26	-0.07	-0.65
9194	-18.07	32.03	3.40	-0.22	-0.03	-0.59
9214	-25.76	33.02	2.20	-0.16	-0.07	-0.53
9233	-24.77	38.24	0.53	-0.11	-0.10	-0.48
9253	-22.05	43.01	1.98	-0.09	-0.09	-0.42
9272	-22.22	48.28	4.81	-0.07	-0.02	-0.41
9292	-25.94	50.40	5.14	-0.12	-0.06	-0.39
9311	-23.06	46.81	3.89	-0.17	-0.09	-0.41
9331	-18.59	37.19	0.47	-0.22	-0.06	-0.46
9352	-16.13	22.06	-2.11	-0.30	-0.06	-0.53
9371	-11.25	1.51	-1.01	-0.35	-0.08	-0.63
9391	-4.94	-18.91	-0.18	-0.37	-0.04	-0.76
9411	-2.21	-34.07	1.82	-0.36	-0.02	-0.88
9432	0.17	-42.56	8.85	-0.36	-0.04	-0.96
9451	3.13	-46.97	15.01	-0.39	-0.01	-1.03
9470	2.66	-48.40	16.57	-0.39	0.01	-1.07
9489	-0.49	-46.51	17.64	-0.35	-0.01	-1.10
9509	-1.45	-33.84	15.43	-0.30	-0.04	-1.10
9530	0.67	-15.73	8.22	-0.32	-0.06	-1.07
9549	4.20	-1.94	-0.38	-0.34	-0.06	-1.03
9569	7.74	9.37	-4.50	-0.35	-0.05	-1.01
9588	9.00	19.07	-6.42	-0.38	-0.03	-0.98
9607	8.10	22.61	-8.00	-0.42	-0.01	-0.95
9628	5.22	18.98	-4.82	-0.43	0.00	-0.94
9646	1.46	11.73	1.85	-0.42	-0.00	-0.93
9666	-0.72	3.57	3.17	-0.38	-0.00	-0.94
9685	-2.69	-1.27	1.51	-0.36	0.00	-0.96
9705	-4.76	-4.07	1.04	-0.36	-0.03	-0.97
9725	-4.59	-5.20	-0.55	-0.37	-0.04	-0.97
9746	-1.80	-7.49	-10.03	-0.38	-0.03	-0.95
9766	-0.89	-6.90	-12.22	-0.37	-0.03	-0.91
9787	-0.64	-6.42	-11.99	-0.36	-0.04	-0.86
9807	0.06	-3.30	-9.20	-0.34	-0.04	-0.82
9826	0.24	-0.98	-8.77	-0.31	-0.04	-0.76
9847	-0.66	6.55	-6.29	-0.29	-0.02	-0.70
9867	-2.00	7.83	-5.58	-0.29	-0.03	-0.64
9887	-4.71	7.22	-5.57	-0.26	-0.05	-0.58
9906	-5.65	3.85	-8.90	-0.23	-0.06	-0.54
9927	-4.35	0.98	-11.98	-0.16	-0.06	-0.48
9947	-1.30	-0.29	-12.57	-0.14	-0.06	-0.45
9967	0.73	-3.10	-10.36	-0.15	-0.05	-0.43
9987	2.03	-7.37	-7.29	-0.17	-0.04	-0.43
10006	2.55	-11.63	-3.19	-0.18	-0.04	-0.45
10027	2.55	-15.20	1.39	-0.16	-0.03	-0.48
10046	1.66	-13.79	4.84	-0.13	-0.02	-0.52
10066	-0.29	-5.17	6.99	-0.11	-0.02	-0.58
10085	-3.20	8.71	10.48	-0.16	-0.02	-0.67
10106	-4.76	21.35	10.79	-0.19	-0.05	-0.73
10125	-3.36	34.21	6.64	-0.24	-0.05	-0.82
10144	-1.45	43.18	6.82	-0.33	-0.05	-0.89
10164	1.02	41.06	6.23	-0.40	-0.06	-0.96
10183	6.56	32.27	1.82	-0.37	-0.10	-1.03
10202	10.53	29.08	-0.85	-0.34	-0.06	-1.09
10221	15.06	24.78	1.11	-0.34	-0.04	-1.11
10240	14.13	19.35	16.25	-0.34	-0.04	-1.15
10260	14.37	12.79	25.01	-0.29	-0.08	-1.20
10279	17.61	12.24	23.74	-0.20	-0.08	-1.24
10298	18.40	22.52	25.01	-0.05	-0.10	-1.24
10317	16.89	41.02	22.23	-0.01	-0.11	-1.23
10335	16.25	57.39	6.21	-0.05	-0.08	-1.24
10355	14.53	62.50	-3.11	-0.15	-0.05	-1.22
10374	8.18	62.97	-13.96	-0.18	-0.03	-1.21
10394	-1.51	58.01	-14.47	-0.15	-0.01	-1.21
10413	-11.63	53.97	-13.63	-0.17	-0.00	-1.22
10434	-17.47	44.66	-13.76	-0.23	-0.03	-1.24
10454	-17.27	30.18	-13.49	-0.24	-0.06	-1.27
10475	-15.23	19.09	-7.22	-0.17	-0.04	-1.30
10494	-14.14	17.56	2.11	-0.13	-0.06	-1.32
10513	-9.05	17.61	2.87	-0.18	-0.11	-1.31
10533	-0.29	9.41	-1.22	-0.21	-0.11	-1.29
10553	4.85	1.34	2.91	-0.12	-0.05	-1.30
10572	3.25	4.15	14.83	-0.04	-0.07	-1.28
10591	6.55	12.88	16.77	-0.04	-0.17	-1.30
10610	20.16	17.23	-4.06	-0.16	-0.17	-1.35
10629	26.79	15.08	-15.37	-0.23	-0.08	-1.37
10649	31.37	6.06	-18.55	-0.20	-0.05	-1.39
10668	26.21	0.96	1.63	-0.13	0.00	-1.40
10686	13.02	1.68	21.88	-0.13	0.02	-1.42
10705	-1.10	-1.63	28.29	-0.19	-0.04	-1.43
10724	-10.51	-12.70	20.60	-0.24	-0.10	-1.44
10745	-14.21	-26.99	7.06	-0.19	-0.14	-1.42
10765	-11.95	-33.51	-6.00	-0.13	-0.17	-1.43
10786	-7.22	-29.56	-12.39	-0.07	-0.14	-1.42
10805	-6.44	-19.71	-14.04	-0.08	-0.05	-1.40
10825	-8.61	-11.83	-13.52	-0.11	-0.06	-1.37
10846	-8.13	-3.71	-10.50	-0.12	-0.06	-1.33
10867	-10.70	1.79	-0.84	-0.19	-0.01	-1.28
10887	-15.58	-3.42	7.78	-0.25	-0.04	-1.24
10906	-15.70	-13.96	6.68	-0.24	-0.09	-1.23
10927	-12.04	-23.79	0.40	-0.22	-0.11	-1.21
10946	-8.01	-28.52	-5.16	-0.18	-0.08	-1.19
10968	-4.85	-30.26	-7.78	-0.18	-0.11	-1.17
10988	0.35	-32.41	-7.80	-0.19	-0.12	-1.15
11008	4.44	-35.32	-5.97	-0.19	-0.07	-1.13
11028	5.16	-36.53	-1.83	-0.19	-0.06	-1.13
11047	5.63	-34.35	2.58	-0.19	-0.07	-1.11
11068	6.35	-30.99	1.22	-0.22	-0.08	-1.11
11086	7.77	-29.89	-1.16	-0.23	-0.08	-1.10
11107	10.89	-26.95	-4.38	-0.20	-0.07	-1.11
11126	12.16	-17.82	-9.96	-0.20	-0.07	-1.12
11147	11.76	-6.82	-17.78	-0.25	-0.06	-1.12
11167	13.15	0.00	-16.40	-0.31	-0.08	-1.11
11186	14.01	2.72	-5.23	-0.31	-0.06	-1.11
11206	9.77	4.81	-0.27	-0.32	-0.05	-1.11
11224	5.02	1.53	-1.79	-0.32	-0.06	-1.10
11244	1.77	-3.39	-2.94	-0.26	-0.09	-1.11
11264	1.83	-2.79	-1.74	-0.19	-0.12	-1.14
11285	0.81	2.85	-2.30	-0.19	-0.07	-1.16
11304	-4.44	4.24	-3.40	-0.24	-0.05	-1.13
11324	-9.84	-2.61	-1.89	-0.28	-0.05	-1.07
11344	-11.83	-13.41	0.31	-0.24	-0.10	-1.03
11365	-8.41	-16.54	-2.06	-0.17	-0.10	-1.01
11385	-3.72	-10.82	-8.80	-0.11	-0.09	-0.97
11405	-0.72	-0.95	-12.28	-0.11	-0.05	-0.90
11426	-0.50	4.82	-14.51	-0.12	-0.09	-0.80
11445	4.67	10.25	-15.96	-0.05	-0.10	-0.73
11465	7.68	21.48	-16.71	0.01	-0.08	-0.67
11484	4.88	34.84	-11.54	0.02	-0.03	-0.61
11503	2.03	40.19	-8.06	-0.06	-0.03	-0.54
11522	-2.85	44.19	0.69	-0.10	-0.03	-0.51
11541	-7.28	38.48	10.10	-0.15	-0.01	-0.47
11561	-10.77	27.79	18.66	-0.18	-0.02	-0.46
11581	-13.18	12.12	22.28	-0.21	-0.05	-0.47
11601	-13.38	-4.93	19.62	-0.20	-0.06	-0.51
11620	-12.18	-19.36	15.38	-0.17	-0.05	-0.56
11641	-10.96	-28.99	11.92	-0.16	-0.05	-0.61
11660	-8.47	-33.58	8.50	-0.11	-0.07	-0.68
11680	-1.91	-27.37	6.06	-0.07	-0.09	-0.76
11701	7.26	-13.50	8.13	-0.10	-0.11	-0.81
11720	14.27	-2.98	15.18	-0.22	-0.08	-0.86
11740	16.77	-0.81	19.44	-0.35	-0.03	-0.94
11759	14.33	-4.94	17.00	-0.41	-0.04	-0.99
11779	9.95	-9.22	11.80	-0.44	-0.04	-1.02
11798	6.38	-13.79	3.27	-0.43	-0.11	-1.06
11819	7.71	-14.34	-2.93	-0.42	-0.12	-1.08
11838	10.18	-11.95	-12.44	-0.40	-0.08	-1.09
11857	8.21	-8.67	-13.18	-0.37	-0.07	-1.08
11878	4.33	-6.20	-11.64	-0.32	-0.06	-1.06
11897	0.75	-2.11	-9.74	-0.25	-0.07	-1.06
11918	-2.75	7.14	-5.13	-0.21	-0.09	-1.07
11937	-5.28	16.07	-3.13	-0.25	-0.09	-1.08
11957	-6.59	17.14	-5.86	-0.30	-0.11	-1.06
11977	-5.28	10.97	-9.54	-0.32	-0.13	-1.04
11998	-2.75	4.09	-11.20	-0.31	-0.11	-1.05
12018	-1.62	-3.94	-11.35	-0.35	-0.10	-1.03
12037	-1.24	-15.90	-7.95	-0.36	-0.09	-1.02
12058	-2.21	-25.21	-2.21	-0.30	-0.08	-1.02
12078	-2.73	-26.06	0.26	-0.25	-0.08	-1.02
12099	-2.98	-20.71	2.03	-0.22	-0.10	-1.00
12118	-2.47	-14.39	6.12	-0.25	-0.11	-0.97
12139	-1.94	-11.28	9.14	-0.29	-0.11	-0.95
12158	-1.72	-9.77	7.63	-0.33	-0.11	-0.93
12177	-1.48	-9.52	4.18	-0.34	-0.11	-0.90
12199	-1.65	-11.35	2.67	-0.35	-0.10	-0.87
12218	-2.32	-14.76	2.11	-0.31	-0.10	-0.82
12238	-1.63	-15.01	0.17	-0.25	-0.10	-0.78
12258	-0.24	-11.98	-3.13	-0.21	-0.09	-0.71
12278	1.45	-8.22	-7.00	-0.19	-0.07	-0.64
12298	1.53	-3.72	-9.84	-0.15	-0.07	-0.61
12319	1.46	3.78	-14.82	-0.14	-0.07	-0.57
12338	1.27	7.64	-20.42	-0.15	-0.07	-0.52
12358	1.10	8.09	-21.94	-0.12	-0.05	-0.48
12377	-0.17	7.87	-21.91	-0.12	-0.03	-0.45
12397	-2.76	5.10	-18.66	-0.11	-0.02	-0.44
12418	-5.94	1.85	-14.25	-0.08	-0.02	-0.44
12437	-7.84	0.26	-8.19	-0.10	-0.02	-0.45
12457	-8.44	-1.21	-0.78	-0.13	-0.04	-0.49
12477	-7.68	-3.60	7.54	-0.13	-0.04	-0.53
12498	-5.37	-4.24	11.86	-0.10	-0.06	-0.58
12517	0.02	-0.09	12.36	-0.09	-0.06	-0.67
12537	3.60	8.53	11.02	-0.11	-0.03	-0.76
12556	3.56	16.71	12.02	-0.14	-0.02	-0.82
12574	1.82	21.84	14.94	-0.16	-0.02	-0.88
12595	0.26	27.69	16.42	-0.17	-0.02	-0.95
12613	-0.87	33.57	13.53	-0.19	-0.02	-1.00
12633	-2.04	35.66	7.60	-0.23	-0.03	-1.05
12652	-1.92	34.45	3.94	-0.25	-0.04	-1.09
12672	0.95	27.34	4.07	-0.29	-0.07	-1.12
12691	3.22	22.48	4.53	-0.27	-0.07	-1.15
12710	5.33	16.80	8.45	-0.20	-0.04	-1.20
12729	5.14	22.34	12.10	-0.11	-0.04	-1.24
12748	6.82	32.59	12.33	-0.14	-0.08	-1.26
12767	9.20	33.26	4.94	-0.23	-0.07	-1.28
12786	8.90	27.15	-4.23	-0.21	-0.05	-1.31
12805	4.18	27.16	-6.62	-0.11	-0.02	-1.34
12825	-1.60	37.84	-5.72	-0.04	-0.03	-1.35
12845	-3.59	44.01	-5.89	-0.11	-0.04	-1.35
12865	-6.94	48.63	-7.17	-0.22	-0.07	-1.33
12884	-7.23	39.98	-5.72	-0.24	-0.08	-1.32
12905	-5.66	29.63	-4.50	-0.04	-0.06	-1.31
12925	-4.88	32.15	-5.33	-0.02	-0.05	-1.31
12945	-5.98	35.32	-6.87	-0.11	-0.06	-1.30
12965	-5.04	27.22	-4.70	-0.18	-0.11	-1.31
12984	-1.80	14.95	0.73	-0.15	-0.10	-1.32
13005	-0.53	5.84	4.75	-0.10	-0.07	-1.36
13023	-1.69	3.46	2.15	-0.05	-0.07	-1.40
13044	-3.78	4.00	-2.99	-0.07	-0.05	-1.42
13063	-5.36	1.34	-4.04	-0.11	-0.08	-1.44
13082	-2.91	-2.37	0.47	-0.08	-0.11	-1.49
13103	0.15	4.17	4.46	0.01	-0.08	-1.53
13122	-1.31	17.76	3.27	-0.01	-0.04	-1.55
13142	-4.81	26.69	-3.05	-0.09	-0.02	-1.54
13161	-10.50	27.11	-8.29	-0.14	0.04	-1.52
13181	-20.98	24.48	-7.17	-0.11	0.05	-1.49
13200	-25.45	24.57	-5.07	-0.09	-0.04	-1.47
13220	-26.29	25.65	-2.67	-0.09	-0.08	-1.45
13240	-16.40	24.17	-4.91	-0.08	-0.12	-1.40
13259	-2.79	19.17	-6.62	-0.07	-0.12	-1.34
13280	10.03	11.70	-0.53	-0.08	-0.09	-1.31
13299	19.09	4.30	9.96	-0.04	-0.07	-1.29
13319	24.20	-3.11	17.29	-0.03	-0.06	-1.26
13338	26.58	-12.05	21.19	-0.04	-0.07	-1.21
13358	25.73	-21.77	25.89	-0.03	-0.08	-1.20
13377	21.58	-28.61	25.91	0.00	-0.08	-1.19
13396	15.90	-33.92	16.08	-0.01	-0.07	-1.15
13416	6.67	-39.44	3.25	-0.01	-0.02	-1.14
13435	-5.81	-38.96	-1.63	0.00	-0.05	-1.15
13455	-14.14	-34.53	-2.91	-0.02	-0.09	-1.14
13475	-15.15	-31.78	-9.02	-0.02	-0.10	-1.12
13496	-11.87	-26.05	-16.07	-0.00	-0.08	-1.13
13516	-9.17	-14.68	-15.15	-0.01	-0.07	-1.14
13537	-6.53	-3.68	-10.06	-0.06	-0.05	-1.12
13557	-3.34	0.40	-6.47	-0.09	-0.05	-1.11
13577	-1.79	1.46	-4.23	-0.06	-0.05	-1.11
13597	4.67	5.40	2.24	-0.09	-0.10	-1.12
13616	8.01	4.67	3.65	-0.11	-0.11	-1.12
13636	13.61	-0.99	3.16	-0.11	-0.10	-1.12
13655	16.42	-7.60	2.24	-0.08	-0.07	-1.15
13674	14.16	-8.59	2.49	-0.03	-0.08	-1.18
13693	10.62	-5.54	2.70	-0.03	-0.09	-1.18
13713	6.41	-5.08	-1.01	-0.04	-0.07	-1.14
13733	-1.80	-4.97	-6.29	-0.03	-0.03	-1.11
13753	-12.02	-0.55	-7.02	0.00	-0.05	-1.08
13773	-20.57	2.70	-3.89	-0.04	-0.05	-1.02
13793	-25.99	-1.48	-1.53	-0.09	-0.06	-0.92
13813	-29.11	-8.48	-2.67	-0.07	-0.06	-0.86
13834	-28.79	-8.41	-2.24	-0.04	-0.06	-0.82
13855	-27.24	-9.43	-2.46	-0.06	-0.07	-0.75
13874	-25.67	-14.88	-3.23	-0.07	-0.03	-0.67
13895	-25.83	-19.59	-7.26	-0.01	-0.03	-0.62
13915	-23.68	-17.03	-8.33	0.03	-0.02	-0.58
13935	-20.52	-12.36	-4.93	0.05	-0.03	-0.53
13955	-15.90	-7.74	-1.25	0.06	-0.04	-0.48
13974	-10.76	-2.11	-0.64	0.05	-0.04	-0.48
13995	-5.45	0.70	-0.49	0.01	-0.05	-0.48
14014	1.16	-0.96	-3.17	-0.01	-0.06	-0.49
14035	8.32	-5.11	-6.93	-0.03	-0.06	-0.53
14054	12.44	-11.76	-8.32	-0.08	-0.02	-0.60
14075	12.97	-22.42	-7.17	-0.13	-0.03	-0.68
14094	13.98	-28.44	-6.26	-0.15	-0.03	-0.77
14115	16.89	-38.85	-3.86	-0.16	-0.02	-0.82
14135	15.59	-45.43	1.50	-0.20	0.04	-0.95
14153	9.48	-50.58	5.72	-0.24	0.03	-0.98
14173	6.45	-57.72	5.49	-0.28	-0.01	-1.01
14192	5.97	-61.80	2.94	-0.27	-0.02	-1.05
14212	5.80	-56.38	2.01	-0.24	-0.05	-1.08
14231	7.61	-44.63	0.32	-0.28	-0.05	-1.04
14251	9.49	-35.63	-3.13	-0.29	-0.03	-1.00
14271	9.29	-22.43	-3.94	-0.24	-0.02	-1.01
14290	7.13	-0.27	-0.84	-0.24	-0.01	-1.00
14311	4.53	21.58	3.86	-0.28	-0.01	-0.96
14329	2.50	34.87	7.08	-0.33	-0.02	-0.93
14349	1.97	39.99	7.72	-0.35	-0.01	-0.94
14368	1.24	40.45	6.82	-0.35	-0.00	-0.95
14388	-0.73	38.25	3.33	-0.34	-0.00	-0.96
14407	-0.69	31.98	-0.78	-0.34	-0.02	-0.98
14426	0.15	22.16	-4.29	-0.34	0.01	-1.03
14446	-2.14	11.02	-5.46	-0.32	0.02	-1.08
14465	-5.22	1.85	-2.66	-0.29	-0.01	-1.09
14485	-3.01	-3.46	-0.75	-0.27	-0.03	-1.12
14505	0.93	-5.49	-1.97	-0.28	-0.04	-1.14
14525	2.91	-7.35	-1.01	-0.31	-0.04	-1.13
14545	4.03	-9.99	2.14	-0.31	-0.05	-1.09
14566	5.95	-10.47	3.60	-0.28	-0.05	-1.04
14585	7.40	-5.10	2.79	-0.23	-0.04	-0.97
14604	6.10	2.26	1.40	-0.21	-0.03	-0.88
14623	5.16	4.85	-0.18	-0.21	-0.05	-0.77
14642	4.18	5.95	-4.17	-0.21	-0.06	-0.71
14662	5.34	3.37	-8.58	-0.20	-0.07	-0.62
14681	6.15	-3.40	-10.97	-0.20	-0.05	-0.53
14701	4.84	-14.53	-11.31	-0.18	-0.03	-0.46
14721	2.24	-25.53	-11.38	-0.12	-0.04	-0.42
14740	0.38	-32.87	-11.26	-0.08	-0.03	-0.41
14761	-2.46	-34.70	-8.61	-0.03	-0.02	-0.40
14781	-6.32	-30.79	-4.64	-0.01	-0.03	-0.41
14802	-8.06	-23.35	-1.36	-0.02	-0.06	-0.44
14821	-6.56	-11.72	-0.41	-0.01	-0.06	-0.49
14843	-3.45	3.69	-3.91	-0.06	-0.09	-0.55
14863	2.21	17.70	-9.37	-0.12	-0.09	-0.60
14882	7.95	26.78	-12.37	-0.16	-0.08	-0.65
14902	12.73	32.09	-10.89	-0.20	-0.06	-0.73
14920	13.75	33.45	-6.94	-0.25	-0.04	-0.81
14940	11.70	28.35	-2.52	-0.29	-0.00	-0.87
14960	5.25	20.39	1.36	-0.27	-0.01	-0.93
14979	2.70	16.91	4.15	-0.22	-0.04	-1.02
14998	-0.52	13.40	11.96	-0.19	-0.06	-1.04
15017	0.17	16.77	19.81	-0.15	-0.08	-1.09
15036	1.33	25.44	20.34	-0.09	-0.08	-1.14
15055	0.70	36.93	9.05	-0.06	-0.06	-1.19
15075	-0.43	48.57	-9.64	-0.08	-0.06	-1.19
15094	-2.69	59.07	-19.03	-0.07	-0.06	-1.22
15113	-5.34	69.79	-16.20	-0.06	-0.04	-1.23
15134	-7.68	75.88	-7.51	-0.10	-0.05	-1.24
15154	-5.22	71.82	-0.17	-0.16	-0.09	-1.23
15174	1.66	58.18	5.11	-0.19	-0.09	-1.22
15193	7.77	41.05	11.81	-0.13	-0.07	-1.22
15212	9.31	33.87	15.15	-0.06	-0.08	-1.24
15231	11.81	22.63	16.98	-0.05	-0.08	-1.24
15249	14.45	11.55	10.31	-0.03	-0.07	-1.26
15270	14.30	0.85	1.95	-0.01	-0.04	-1.28
15288	8.88	-4.44	3.43	0.06	-0.04	-1.32
15308	1.95	-1.05	6.82	0.14	-0.06	-1.34
15326	-2.20	11.11	2.93	0.16	-0.06	-1.34
15346	-6.62	22.99	-1.04	0.10	-0.05	-1.32
15366	-12.19	29.82	0.87	0.04	-0.05	-1.30
15384	-15.24	30.82	0.24	0.01	-0.05	-1.29
15404	-17.59	30.35	-5.34	0.03	-0.06	-1.27
15423	-19.53	33.29	-11.44	0.07	-0.03	-1.27
15442	-23.73	34.04	-12.10	-0.00	-0.02	-1.26
15462	-25.70	25.68	-9.83	-0.06	-0.06	-1.27
15483	-20.17	12.44	-7.28	-0.04	-0.11	-1.30
15502	-6.90	5.92	-0.38	0.04	-0.14	-1.35
15522	7.69	8.38	8.18	0.09	-0.14	-1.41
15540	20.94	14.47	7.97	0.10	-0.09	-1.44
15558	24.95	17.36	4.88	0.07	0.02	-1.48
15578	23.25	21.03	-0.12	0.12	0.10	-1.50
15596	8.87	27.62	3.42	0.16	0.10	-1.51
15614	-7.42	38.93	7.71	0.15	0.05	-1.49
15632	-18.05	43.81	2.56	0.10	0.02	-1.46
15650	-24.83	41.81	-1.80	0.11	-0.01	-1.43
15671	-24.08	38.48	-2.52	0.12	-0.11	-1.41
15690	-19.13	36.79	-3.37	0.14	-0.14	-1.37
15710	-5.05	33.04	-7.42	0.20	-0.13	-1.33
15729	9.19	30.94	-6.77	0.21	-0.12	-1.31
15748	19.12	27.71	4.94	0.16	-0.11	-1.27
15767	27.21	14.56	17.20	0.09	-0.12	-1.22
15785	33.55	-3.27	21.64	0.16	-0.11	-1.21
15805	32.18	-16.16	19.29	0.18	-0.05	-1.20
15823	19.59	-26.28	17.47	0.18	-0.01	-1.18
15842	12.10	-31.36	15.08	0.20	-0.04	-1.17
15861	-0.72	-38.89	8.47	0.20	-0.05	-1.16
15881	-9.02	-42.57	0.52	0.20	-0.07	-1.16
15900	-15.87	-41.47	-5.16	0.23	-0.05	-1.15
15920	-21.16	-36.77	-8.47	0.22	-0.06	-1.14
15940	-21.35	-32.36	-14.82	0.19	-0.10	-1.13
15960	-15.69	-28.35	-20.28	0.17	-0.10	-1.14
15981	-9.52	-22.23	-17.35	0.15	-0.08	-1.14
16000	-3.81	-16.65	-6.68	0.11	-0.11	-1.13
16020	5.25	-17.52	0.55	0.03	-0.13	-1.12
16039	14.50	-26.17	3.30	-0.01	-0.10	-1.13
16058	17.32	-36.41	5.16	0.00	-0.06	-1.17
16078	16.91	-41.75	7.13	0.06	-0.08	-1.21
16096	17.21	-41.93	7.55	0.11	-0.11	-1.24
16116	18.13	-37.75	6.99	0.12	-0.08	-1.25
16135	13.87	-30.84	7.28	0.12	-0.07	-1.24
16154	4.53	-22.42	10.35	0.14	-0.03	-1.20
16173	-8.68	-14.77	11.49	0.12	-0.01	-1.13
16193	-21.87	-10.45	6.62	0.09	-0.04	-1.05
16213	-29.57	-7.92	0.56	0.07	-0.05	-0.98
16232	-32.73	-6.32	-2.88	0.07	-0.05	-0.91
16252	-31.75	-4.81	-2.56	0.07	-0.07	-0.84
16271	-26.66	-4.62	-1.48	0.04	-0.10	-0.77
16293	-21.10	-9.93	-4.44	-0.02	-0.05	-0.70
16312	-18.34	-20.17	-7.51	-0.07	-0.01	-0.61
16334	-17.65	-31.27	-6.09	-0.07	0.01	-0.55
16353	-16.11	-39.66	0.21	-0.07	-0.03	-0.49
16373	-9.52	-46.51	5.34	-0.04	-0.08	-0.46
16394	0.60	-49.65	6.32	-0.01	-0.07	-0.42
16413	8.88	-48.83	3.11	0.01	-0.04	-0.42
16432	15.05	-42.68	2.40	0.02	-0.06	-0.43
16451	18.10	-39.03	3.17	0.01	-0.04	-0.44
16469	22.08	-32.30	3.01	-0.01	-0.02	-0.50
16490	25.71	-24.96	-0.58	-0.06	-0.04	-0.61
16509	31.33	-20.07	-2.59	-0.17	-0.04	-0.73
16530	32.50	-24.20	2.78	-0.29	-0.01	-0.83
16549	25.19	-34.44	11.12	-0.31	0.03	-0.92
16568	14.16	-42.60	12.54	-0.32	0.00	-0.99
16588	5.74	-46.08	6.50	-0.28	-0.01	-1.01
16607	-2.88	-42.85	-1.88	-0.24	-0.03	-1.02
16627	-9.46	-33.34	-8.19	-0.21	-0.05	-1.02
16648	-12.51	-21.29	-14.48	-0.22	-0.05	-0.99
16668	-14.19	-9.67	-16.69	-0.21	-0.05	-0.96
16688	-15.23	2.56	-14.04	-0.22	-0.05	-0.95
16709	-15.56	12.01	-11.17	-0.27	-0.05	-0.92
16728	-12.68	15.03	-8.56	-0.31	-0.08	-0.90
16749	-8.73	12.54	-3.69	-0.33	-0.05	-0.91
16768	-8.54	6.26	2.40	-0.34	-0.03	-0.93
16788	-8.00	-1.82	6.10	-0.31	-0.05	-0.96
16808	-6.30	-4.99	5.71	-0.26	-0.07	-0.98
16828	-1.34	-6.96	2.94	-0.20	-0.05	-1.02
16848	1.51	-1.28	0.60	-0.19	-0.04	-1.03
16867	1.17	7.49	-1.40	-0.20	-0.03	-1.05
16887	2.12	14.69	-3.42	-0.23	-0.07	-1.06
16906	5.51	18.69	-3.40	-0.27	-0.05	-1.06
16926	5.20	18.80	-1.54	-0.31	-0.02	-1.06
16945	1.66	15.55	0.75	-0.32	-0.02	-1.04
16965	-0.31	11.38	1.79	-0.30	-0.05	-1.02
16983	0.40	7.64	1.69	-0.29	-0.05	-0.98
17004	0.90	2.52	2.50	-0.29	-0.03	-0.92
17023	-0.44	-6.64	2.58	-0.28	-0.03	-0.83
17042	-1.31	-12.27	2.30	-0.20	-0.04	-0.75
17062	-2.35	-20.05	0.46	-0.13	-0.04	-0.66
17082	-3.05	-22.58	-3.81	-0.11	-0.04	-0.62
17103	-2.32	-23.19	-10.01	-0.09	-0.06	-0.50
17123	0.31	-24.58	-15.34	-0.06	-0.06	-0.44
17143	3.89	-24.90	-16.77	-0.01	-0.06	-0.42
17163	6.12	-19.32	-13.87	0.01	-0.05	-0.42
17181	7.78	-8.10	-7.95	0.01	-0.05	-0.42
17202	9.98	4.73	-3.20	0.00	-0.05	-0.42
17220	12.33	18.05	-0.56	-0.01	-0.05	-0.46
17240	13.99	33.52	-0.75	-0.07	-0.06	-0.53
17259	16.24	44.24	-1.34	-0.16	-0.06	-0.58
17279	17.18	44.24	-2.29	-0.26	-0.05	-0.65
17298	14.89	32.61	-2.50	-0.33	-0.03	-0.74
17318	8.70	14.60	1.88	-0.34	-0.02	-0.83
17337	1.13	-3.98	9.40	-0.27	-0.02	-0.92
17356	-3.23	-11.23	12.77	-0.19	-0.04	-1.02
17376	-10.01	-20.58	15.18	-0.17	-0.07	-1.11
17396	-13.61	-26.54	11.05	-0.15	-0.09	-1.15
17417	-14.85	-23.94	4.12	-0.02	-0.05	-1.23
17436	-16.42	-9.26	0.92	0.00	-0.05	-1.23
17456	-16.88	11.03	-0.17	-0.02	-0.06	-1.25
17476	-12.62	32.42	-4.27	-0.06	-0.08	-1.27
17495	-6.15	49.68	-9.99	-0.12	-0.03	-1.26
17516	-2.27	57.43	-5.98	-0.20	-0.01	-1.23
17535	-0.61	55.05	5.34	-0.21	-0.03	-1.22
17555	3.01	48.28	10.76	-0.22	-0.05	-1.21
17574	6.97	36.93	11.87	-0.20	-0.06	-1.20
17593	9.74	23.19	14.88	-0.17	-0.07	-1.21
17612	13.40	11.31	15.21	-0.13	-0.10	-1.23
17632	15.59	5.92	11.60	-0.13	-0.07	-1.26
17651	16.72	-6.81	0.72	-0.12	-0.07	-1.27
17670	14.89	-19.73	0.52	-0.13	-0.07	-1.27
17689	11.72	-32.26	10.79	-0.11	-0.06	-1.29
17708	4.91	-38.76	19.42	-0.06	-0.02	-1.32
17729	-5.51	-35.71	19.44	-0.03	-0.01	-1.32
17749	-14.85	-25.70	20.07	-0.03	-0.05	-1.30
17769	-17.99	-14.72	15.32	-0.08	-0.09	-1.27
17788	-17.20	-7.35	4.30	-0.16	-0.07	-1.25
17807	-18.13	-4.03	-5.54	-0.20	-0.01	-1.23
17829	-21.16	1.39	-7.60	-0.19	-0.01	-1.22
17848	-20.87	6.50	-6.68	-0.27	-0.04	-1.20
17869	-17.00	0.29	-0.93	-0.37	-0.04	-1.19
17888	-10.45	-12.56	6.87	-0.37	-0.04	-1.21
17907	-4.62	-20.00	9.09	-0.30	-0.04	-1.24
17928	3.52	-18.97	5.60	-0.28	-0.06	-1.28
17947	12.08	-15.78	2.33	-0.28	-0.06	-1.31
17967	18.78	-12.28	2.32	-0.27	-0.02	-1.37
17986	19.70	-9.12	1.89	-0.24	0.01	-1.40
18005	16.92	3.48	-1.31	-0.16	0.04	-1.43
18024	9.08	21.19	-2.04	-0.19	0.08	-1.43
18043	-4.01	33.08	1.28	-0.22	0.09	-1.43
18062	-18.46	37.69	2.58	-0.25	0.06	-1.43
18081	-28.17	36.90	1.22	-0.24	-0.01	-1.41
18100	-26.06	36.96	-0.02	-0.17	-0.08	-1.37
18120	-16.14	42.45	4.09	-0.09	-0.08	-1.34
18140	-8.85	48.84	7.42	-0.12	-0.03	-1.30
18159	-6.62	47.96	7.08	-0.16	-0.05	-1.25
18178	0.78	39.70	1.75	-0.16	-0.08	-1.22
18197	13.84	28.11	-2.82	-0.15	-0.08	-1.18
18216	22.29	16.68	-2.99	-0.13	-0.03	-1.17
18237	23.18	7.00	-5.46	-0.12	-0.02	-1.15
18255	21.12	-4.47	-10.28	-0.15	-0.02	-1.13
18276	15.81	-16.85	-9.98	-0.14	0.01	-1.14
18295	6.94	-22.35	-2.33	-0.07	0.02	-1.15
18315	-1.72	-18.86	3.13	-0.03	-0.01	-1.14
18335	-4.67	-11.17	-2.40	-0.01	-0.04	-1.15
18355	-5.00	1.36	-10.79	0.01	-0.04	-1.15
18375	-7.19	18.94	-15.18	-0.00	-0.02	-1.14
18394	-11.73	32.33	-16.92	-0.07	-0.00	-1.11
18415	-15.03	35.63	-18.48	-0.11	-0.01	-1.08
18435	-12.59	30.20	-17.53	-0.11	-0.07	-1.08
18455	-5.39	20.94	-11.38	-0.14	-0.08	-1.09
18474	-1.42	14.05	-7.51	-0.15	-0.07	-1.09
18494	6.84	-2.91	-1.25	-0.14	-0.05	-1.10
18514	13.21	-17.46	2.18	-0.05	-0.06	-1.14
18533	18.28	-22.42	8.73	0.00	-0.08	-1.20
18553	21.18	-21.16	12.76	0.01	-0.06	-1.21
18571	20.77	-17.38	9.38	0.06	-0.03	-1.22
18591	15.23	-5.43	2.73	0.12	0.00	-1.22
18609	3.71	13.60	-0.99	0.13	0.01	-1.19
18627	-10.25	30.96	-3.43	0.07	-0.01	-1.11
18648	-19.18	40.59	-8.36	0.06	-0.06	-1.03
18667	-20.13	44.51	-11.23	0.02	-0.07	-0.97
18687	-19.39	48.46	-13.82	-0.00	-0.05	-0.94
18706	-21.82	44.43	-9.86	-0.02	-0.02	-0.86
18726	-26.12	34.47	-5.22	-0.04	-0.04	-0.77
18746	-25.10	19.56	-7.11	-0.07	-0.07	-0.68
18766	-22.49	-1.08	-14.13	-0.11	-0.04	-0.63
18787	-22.46	-24.52	-17.52	-0.08	-0.01	-0.60
18806	-21.94	-41.90	-17.41	-0.01	-0.05	-0.57
18827	-14.88	-50.23	-16.19	0.03	-0.06	-0.54
18847	-7.45	-53.24	-17.17	0.06	-0.06	-0.53
18867	0.23	-52.29	-17.96	0.06	-0.04	-0.53
18886	7.08	-48.17	-17.59	0.06	-0.05	-0.57
18906	13.53	-42.04	-13.03	0.04	-0.02	-0.62
18925	14.45	-38.30	-6.36	-0.02	0.02	-0.68
18944	12.33	-38.64	-2.09	-0.11	0.01	-0.77
18965	14.40	-41.08	0.31	-0.11	-0.04	-0.84
18984	19.03	-39.79	3.14	-0.13	-0.02	-0.88
19003	20.13	-40.94	8.13	-0.20	-0.04	-0.89
19022	20.60	-44.16	9.75	-0.22	-0.04	-0.90
19042	23.62	-52.09	7.66	-0.22	-0.07	-0.91
19062	29.24	-55.05	2.24	-0.20	-0.06	-0.93
19081	31.43	-52.37	-0.44	-0.21	-0.04	-0.92
19100	29.05	-47.15	1.02	-0.20	-0.03	-0.90
19120	25.01	-37.05	3.57	-0.16	-0.01	-0.92
19139	16.75	-17.82	7.45	-0.14	0.00	-0.95
19159	3.22	8.16	10.30	-0.14	0.01	-0.95
19177	-11.08	32.17	6.06	-0.22	-0.01	-0.95
19196	-17.00	39.81	1.53	-0.29	-0.04	-0.95
19216	-24.92	46.62	-7.84	-0.33	-0.07	-0.97
19235	-26.96	44.37	-12.05	-0.34	-0.08	-0.97
19257	-22.99	36.33	-10.48	-0.32	-0.08	-0.99
19276	-16.57	24.02	-6.27	-0.31	-0.06	-1.01
19297	-12.41	8.07	-0.81	-0.29	-0.05	-1.04
19316	-8.70	-6.99	5.58	-0.25	-0.06	-1.07
19335	-2.04	-15.09	10.21	-0.19	-0.07	-1.10
19356	6.59	-15.21	10.96	-0.17	-0.06	-1.12
19375	12.89	-11.54	10.91	-0.16	-0.05	-1.11
19395	15.56	-3.33	10.25	-0.16	-0.05	-1.08
19414	15.61	8.10	8.56	-0.17	-0.04	-1.04
19433	12.77	19.24	6.99	-0.21	-0.02	-0.98
19452	6.20	23.44	4.55	-0.26	-0.01	-0.90
19471	0.17	19.12	0.99	-0.28	-0.03	-0.80
19491	-1.56	15.05	-1.14	-0.23	-0.06	-0.71
19510	-2.72	6.91	-4.99	-0.21	-0.05	-0.67
19530	-4.06	-3.13	-8.64	-0.19	-0.03	-0.59
19550	-7.49	-17.64	-13.21	-0.18	-0.02	-0.52
19570	-10.80	-34.30	-16.60	-0.13	-0.03	-0.46
19591	-12.10	-47.45	-18.28	-0.08	-0.03	-0.44
19611	-12.01	-52.89	-15.24	-0.01	-0.03	-0.43
19632	-10.79	-49.03	-7.46	0.03	-0.03	-0.42
19651	-8.16	-38.70	-0.61	0.04	-0.04	-0.44
19672	-4.18	-22.80	4.18	0.02	-0.04	-0.47
19691	0.06	-4.59	9.06	-0.01	-0.04	-0.50
19711	4.21	12.24	13.21	-0.07	-0.04	-0.54
19729	8.32	23.38	13.14	-0.13	-0.04	-0.60
19748	10.86	27.92	10.04	-0.23	-0.03	-0.69
19768	12.91	21.90	7.72	-0.31	-0.04	-0.76
19786	14.13	5.33	6.73	-0.38	-0.02	-0.84
19805	14.07	-5.98	7.93	-0.40	-0.02	-0.92
19824	11.51	-29.72	17.84	-0.38	-0.02	-0.97
19843	7.26	-46.30	25.67	-0.27	-0.03	-1.05
19863	5.20	-46.20	22.03	-0.13	-0.03	-1.14
19882	2.93	-27.40	10.16	-0.06	-0.03	-1.20
19902	0.84	0.32	0.32	-0.06	-0.06	-1.22
19921	-1.28	29.66	-6.94	-0.08	-0.01	-1.24
19941	-6.74	57.79	-12.83	-0.12	0.02	-1.25
19960	-12.22	80.96	-10.91	-0.19	0.00	-1.25
19980	-14.02	90.65	-5.95	-0.30	-0.03	-1.23
20000	-11.95	81.91	-0.79	-0.33	-0.02	-1.23
20019	-10.93	73.12	1.07	-0.36	-0.02	-1.22
20039	-8.76	48.03	3.78	-0.37	-0.09	-1.23
20058	-0.53	16.95	8.42	-0.36	-0.09	-1.24
20079	8.10	-12.74	10.67	-0.29	-0.03	-1.28
20098	10.65	-31.71	11.49	-0.15	-0.03	-1.34
20117	11.86	-34.70	11.15	-0.05	-0.05	-1.40
20137	12.63	-30.04	6.42	-0.07	-0.03	-1.44
20156	8.50	-21.55	4.01	-0.04	-0.00	-1.49
20176	2.78	-4.32	3.86	-0.04	-0.04	-1.50
20195	0.50	11.49	2.26	-0.16	-0.04	-1.49
20215	-4.24	12.57	-2.75	-0.29	0.00	-1.47
20234	-7.05	4.20	-5.58	-0.32	-0.08	-1.48
20254	-4.33	-2.66	-6.56	-0.32	-0.08	-1.49
20275	-1.04	-5.55	-5.87	-0.32	-0.08	-1.50
20295	2.94	-9.89	0.84	-0.37	-0.08	-1.51
20315	7.80	-16.54	3.62	-0.35	-0.05	-1.52
20334	8.73	-17.91	2.94	-0.27	0.02	-1.55
20353	5.31	-11.41	1.83	-0.22	0.04	-1.55
20372	-3.54	5.08	2.08	-0.20	0.06	-1.54
20391	-13.72	18.75	4.87	-0.26	0.03	-1.50
20411	-19.87	25.34	2.75	-0.25	-0.02	-1.48
20429	-19.07	33.14	-1.98	-0.20	-0.04	-1.43
20450	-14.40	44.01	-2.50	-0.16	-0.06	-1.37
20469	-7.31	49.94	-2.08	-0.19	-0.04	-1.29
20490	-1.59	46.97	-5.63	-0.17	-0.03	-1.25
20510	2.61	39.55	-9.98	-0.16	-0.03	-1.21
20529	6.39	29.66	-7.57	-0.14	-0.05	-1.15
20549	11.00	18.05	0.92	-0.16	-0.06	-1.12
20567	12.70	10.67	2.35	-0.17	-0.04	-1.11
20588	14.50	-6.71	-3.52	-0.17	-0.04	-1.09
20607	15.18	-24.31	-11.81	-0.15	-0.04	-1.07
20626	13.18	-36.85	-9.11	-0.07	-0.03	-1.06
20647	7.14	-36.35	0.08	0.02	-0.01	-1.08
20665	0.84	-25.50	0.31	0.02	-0.03	-1.07
20685	-1.89	-14.85	-5.78	0.00	-0.03	-1.05
20705	-6.13	-2.70	-4.14	0.01	-0.03	-1.05
20725	-10.03	11.76	1.51	-0.03	-0.05	-1.06
20744	-8.91	20.54	-1.43	-0.08	-0.09	-1.05
20763	-0.29	23.38	-12.18	-0.08	-0.09	-1.06
20784	9.63	23.93	-16.91	-0.10	-0.07	-1.08
20803	14.45	21.29	-8.76	-0.15	-0.02	-1.13
20823	14.16	13.41	0.73	-0.14	-0.01	-1.14
20841	13.92	8.79	3.01	-0.12	-0.02	-1.15
20861	14.95	1.65	4.24	-0.06	-0.05	-1.17
20880	16.37	-0.93	7.39	-0.03	-0.06	-1.17
20899	14.89	-0.53	8.58	-0.01	-0.04	-1.15
20919	9.22	0.75	3.74	0.03	-0.01	-1.14
20937	0.23	5.46	-1.48	0.04	-0.00	-1.11
20956	-9.06	11.81	-1.91	0.03	-0.02	-1.06
20975	-15.85	16.53	-3.63	0.02	-0.05	-1.00
20996	-19.01	19.10	-9.06	0.03	-0.05	-0.92
21015	-20.00	19.82	-11.87	0.02	-0.03	-0.83
21034	-21.94	20.48	-13.58	0.01	-0.03	-0.78
21054	-23.82	18.69	-10.44	-0.01	-0.05	-0.70
21073	-23.94	11.54	-6.09	-0.04	-0.06	-0.62
21094	-24.64	0.82	-3.27	-0.05	-0.04	-0.55
21113	-25.83	-9.75	-3.56	-0.03	-0.04	-0.50
21134	-22.98	-17.85	-5.20	-0.04	-0.08	-0.48
21154	-16.69	-25.28	-7.63	-0.02	-0.09	-0.47
21175	-9.52	-30.24	-12.33	-0.02	-0.08	-0.49
21196	-1.21	-35.20	-18.28	-0.06	-0.06	-0.52
21215	5.74	-41.32	-21.82	-0.08	-0.04	-0.59
21236	12.74	-44.95	-17.96	-0.09	-0.03	-0.67
21255	19.24	-45.68	-7.35	-0.13	-0.02	-0.76
21276	23.51	-45.46	3.19	-0.15	0.01	-0.82
21294	26.41	-43.64	13.41	-0.17	-0.03	-0.89
21315	30.38	-38.68	22.71	-0.20	-0.06	-0.94
21334	32.56	-33.45	25.39	-0.22	-0.07	-0.95
21354	32.76	-29.89	18.72	-0.25	-0.07	-0.96
21373	30.30	-27.86	8.56	-0.27	-0.07	-0.98
21392	23.94	-25.13	-1.04	-0.28	-0.06	-0.99
21413	13.57	-21.73	-8.64	-0.26	-0.02	-0.98
21433	0.66	-15.96	-11.35	-0.24	-0.03	-0.98
21453	-9.95	-5.68	-9.28	-0.21	-0.04	-1.01
21473	-18.97	10.41	-6.38	-0.20	-0.05	-1.01
21493	-24.70	24.52	-3.37	-0.24	-0.07	-1.00
21513	-26.03	31.94	-0.60	-0.28	-0.08	-1.00
21533	-25.15	32.84	0.08	-0.31	-0.09	-1.01
21553	-20.20	30.26	0.18	-0.30	-0.11	-1.01
21572	-11.02	25.65	0.81	-0.30	-0.11	-1.01
21592	-2.24	17.18	4.10	-0.30	-0.07	-1.00
21611	1.85	5.80	8.00	-0.29	-0.03	-1.01
21631	3.01	-4.87	9.05	-0.26	-0.05	-1.01
21650	6.15	-12.59	9.41	-0.23	-0.08	-0.99
21669	9.60	-18.36	9.38	-0.21	-0.06	-0.95
21689	10.33	-21.12	6.32	-0.13	-0.05	-0.89
21708	10.94	-14.42	2.23	-0.08	-0.06	-0.83
21729	11.90	-3.45	-0.90	-0.08	-0.05	-0.75
21748	11.29	5.52	-3.72	-0.08	-0.03	-0.66
21768	10.10	8.44	-5.60	-0.08	-0.03	-0.58
21787	7.14	12.16	-10.16	-0.07	-0.04	-0.53
21806	5.26	13.96	-14.28	-0.07	-0.04	-0.51
21826	2.72	12.94	-16.53	-0.08	-0.01	-0.47
21845	-2.32	7.34	-17.73	-0.11	0.01	-0.46
21865	-8.48	-2.90	-17.70	-0.13	0.01	-0.47
21885	-12.95	-14.66	-14.08	-0.12	-0.02	-0.50
21906	-14.47	-23.73	-10.06	-0.10	-0.04	-0.53
21926	-13.34	-27.88	-5.45	-0.07	-0.05	-0.59
21947	-11.18	-25.94	-0.72	-0.07	-0.05	-0.66
21967	-8.73	-20.17	2.47	-0.08	-0.07	-0.74
21987	-4.43	-10.22	1.39	-0.07	-0.09	-0.81
22007	0.70	3.97	0.40	-0.06	-0.06	-0.87
22026	0.08	17.55	4.90	-0.10	0.00	-0.91
22045	-7.05	27.83	15.32	-0.11	-0.03	-0.98
22064	-10.38	37.17	24.15	-0.13	-0.06	-1.03
22084	-9.93	41.43	22.69	-0.15	-0.08	-1.05
22103	-6.67	41.24	15.87	-0.15	-0.07	-1.08
22124	-3.89	36.33	10.01	-0.16	-0.07	-1.12
22143	-3.36	32.35	7.75	-0.16	-0.05	-1.15
22162	-3.63	23.54	4.68	-0.15	-0.03	-1.15
22181	-5.80	14.65	3.37	-0.14	-0.00	-1.18
22200	-8.91	5.97	4.52	-0.13	0.00	-1.21
22220	-9.70	-3.74	7.22	-0.15	-0.02	-1.23
22239	-7.35	-12.21	10.83	-0.11	-0.02	-1.26
22259	-2.64	-13.93	15.00	-0.07	-0.05	-1.28
22279	3.11	-8.56	17.59	-0.05	-0.02	-1.28
22298	4.49	0.69	16.25	-0.02	0.01	-1.29
22317	3.54	16.54	10.28	0.03	-0.03	-1.30
22336	4.61	26.73	6.27	-0.03	-0.04	-1.30
22356	7.86	43.11	-0.44	-0.09	-0.02	-1.29
22375	7.68	45.56	-1.97	-0.21	0.01	-1.27
22393	7.74	36.36	-0.26	-0.20	-0.02	-1.28
22413	12.30	26.38	0.67	-0.20	-0.03	-1.29
22432	14.19	14.56	3.65	-0.23	0.00	-1.32
22451	12.95	-2.62	9.55	-0.25	0.00	-1.33
22469	13.32	-18.92	16.11	-0.20	-0.05	-1.37
22489	17.04	-29.57	23.62	-0.22	-0.06	-1.40
22508	18.39	-35.45	25.24	-0.17	-0.04	-1.44
22528	18.80	-43.47	18.94	-0.08	-0.08	-1.48
22548	26.52	-30.15	10.70	0.13	-0.16	-1.57
22566	37.51	2.06	4.17	0.07	-0.12	-1.59
22585	37.43	24.52	-4.56	-0.10	0.01	-1.55
22604	19.82	30.32	-14.37	-0.20	0.09	-1.51
22623	-4.71	28.66	-21.13	-0.21	0.07	-1.49
22643	-25.31	30.81	-21.04	-0.18	0.05	-1.46
22662	-39.89	29.92	-18.57	-0.24	0.02	-1.43
22682	-44.74	20.05	-15.21	-0.29	-0.01	-1.41
22701	-44.33	12.91	-14.37	-0.26	-0.09	-1.40
22722	-34.90	0.38	-11.51	-0.21	-0.12	-1.37
22742	-18.84	-9.22	-5.87	-0.19	-0.11	-1.34
22763	-2.90	-16.62	-1.54	-0.07	-0.10	-1.28
22783	10.42	-17.03	4.61	0.01	-0.09	-1.23
22801	19.24	-10.16	11.32	0.02	-0.07	-1.20
22820	19.65	-1.77	8.96	0.01	-0.04	-1.12
22839	14.62	2.96	-2.37	0.00	-0.06	-1.09
22859	9.05	7.92	-9.80	0.00	-0.08	-1.09
22878	3.75	11.08	-12.60	-0.06	-0.08	-1.08
22898	-2.64	6.74	-16.31	-0.09	-0.07	-1.07
22917	-12.34	0.72	-15.06	-0.09	-0.06	-1.07
22937	-20.39	-6.77	-9.55	-0.11	-0.07	-1.08
22958	-22.06	-15.52	-6.61	-0.09	-0.09	-1.06
22978	-17.91	-22.90	-1.57	-0.07	-0.11	-1.06
22999	-12.15	-25.86	4.18	-0.01	-0.06	-1.07
23018	-7.77	-19.88	1.01	0.02	-0.04	-1.09
23038	-4.23	-15.00	-3.22	-0.01	-0.09	-1.10
23057	6.76	-6.18	-7.31	-0.01	-0.09	-1.12
23078	16.71	3.37	-2.99	0.01	-0.04	-1.12
23096	20.74	15.84	5.77	0.01	-0.01	-1.12
23114	19.81	27.45	8.71	-0.02	0.01	-1.12
23133	17.09	33.86	7.69	-0.07	-0.00	-1.14
23152	11.63	33.95	6.85	-0.12	-0.01	-1.16
23172	5.51	26.60	6.06	-0.14	-0.03	-1.16
23190	1.33	15.23	1.13	-0.10	-0.03	-1.17
23209	-0.63	10.19	-2.24	-0.08	-0.01	-1.18
23229	-6.33	2.67	-7.31	-0.06	0.01	-1.19
23249	-14.05	-3.94	-7.51	-0.05	0.03	-1.16
23270	-22.46	-11.06	-4.39	-0.02	0.03	-1.12
23289	-25.73	-15.93	-0.08	0.02	-0.00	-1.08
23310	-24.90	-14.85	4.53	0.09	-0.01	-1.02
23328	-23.65	-7.20	8.15	0.10	-0.01	-0.95
23349	-21.70	0.14	6.01	0.10	-0.03	-0.85
23368	-16.25	6.82	-1.46	0.11	-0.07	-0.74
23387	-10.47	11.20	-7.29	0.08	-0.05	-0.63
23407	-9.06	12.04	-6.32	0.04	-0.01	-0.52
23426	-10.68	7.72	-3.95	-0.00	-0.04	-0.46
23446	-8.99	-1.57	-8.74	0.00	-0.07	-0.41
23466	-3.98	-10.73	-18.72	0.03	-0.07	-0.38
23486	1.10	-17.99	-26.03	0.03	-0.04	-0.38
23505	2.11	-21.68	-26.89	0.06	-0.01	-0.39
23524	1.92	-23.07	-28.12	0.04	0.00	-0.40
23544	1.07	-28.41	-30.17	-0.03	0.02	-0.45
23563	-0.14	-38.86	-26.55	-0.12	0.03	-0.58
23584	1.14	-46.54	-9.67	-0.11	-0.01	-0.77
23603	5.75	-43.66	11.61	-0.14	-0.02	-0.92
23622	8.85	-37.58	27.25	-0.20	0.01	-1.00
23642	7.28	-31.07	35.75	-0.22	-0.02	-0.99
23661	9.20	-23.21	27.42	-0.31	-0.08	-1.02
23681	15.93	-20.52	10.30	-0.43	-0.10	-1.06
23700	20.26	-25.65	-5.43	-0.44	-0.05	-1.05
23721	21.35	-30.49	-14.66	-0.35	-0.04	-1.02
23740	22.92	-26.69	-16.78	-0.26	-0.04	-1.03
23762	22.34	-14.76	-9.34	-0.20	0.01	-1.06
23780	15.41	1.13	9.41	-0.14	0.02	-1.05
23799	11.11	9.69	18.22	-0.12	0.01	-1.04
23817	2.78	25.62	24.75	-0.11	-0.00	-1.03
23836	-4.23	35.61	18.46	-0.15	-0.03	-1.02
23857	-8.44	35.90	7.57	-0.21	-0.06	-1.01
23876	-9.67	28.17	-4.21	-0.22	-0.06	-1.00
23896	-9.69	17.38	-13.84	-0.21	-0.06	-1.00
23915	-8.76	6.55	-16.80	-0.18	-0.05	-1.00
23936	-7.22	-2.11	-14.01	-0.14	-0.04	-0.99
23956	-5.05	-6.74	-6.32	-0.11	-0.02	-1.00
23976	-5.13	-8.04	4.06	-0.11	-0.01	-1.02
23997	-6.38	-8.18	13.72	-0.14	-0.03	-1.04
24016	-3.89	-9.29	16.05	-0.16	-0.07	-1.04
24036	2.73	-10.48	11.44	-0.20	-0.09	-1.05
24055	8.93	-12.15	6.42	-0.24	-0.07	-1.06
24076	12.13	-14.82	4.41	-0.24	-0.06	-1.03
24095	14.57	-14.60	2.03	-0.19	-0.07	-0.97
24115	16.59	-11.08	0.23	-0.17	-0.06	-0.93
24134	16.91	-8.47	0.73	-0.16	-0.05	-0.91
24153	14.34	-3.13	3.77	-0.16	-0.02	-0.84
24174	7.42	-0.87	5.07	-0.14	-0.01	-0.75
24193	-0.90	-0.93	3.08	-0.12	-0.01	-0.65
24212	-7.13	-3.72	-1.86	-0.11	-0.03	-0.57
24232	-10.48	-8.64	-9.19	-0.11	-0.05	-0.53
24252	-10.13	-14.40	-16.45	-0.11	-0.06	-0.50
24272	-7.29	-18.43	-20.37	-0.08	-0.06	-0.48
24291	-3.97	-19.45	-20.17	-0.04	-0.05	-0.47
24312	-0.70	-16.51	-16.82	-0.05	-0.04	-0.49
24332	2.00	-13.08	-10.67	-0.08	-0.04	-0.53
24351	5.25	-8.76	-4.15	-0.07	-0.03	-0.59
24371	6.47	-0.70	3.42	-0.07	-0.02	-0.64
24390	6.21	7.42	8.93	-0.08	-0.02	-0.67
24409	6.18	10.60	9.23	-0.12	-0.06	-0.74
24427	9.08	14.14	4.29	-0.14	-0.06	-0.77
24446	10.54	13.52	-1.51	-0.17	-0.05	-0.82
24465	8.41	9.75	-1.02	-0.17	-0.03	-0.87
24484	4.38	7.35	1.34	-0.15	-0.03	-0.94
24502	0.49	8.87	0.52	-0.14	-0.03	-1.02
24521	-3.65	11.43	0.23	-0.14	-0.05	-1.06
24540	-4.73	11.51	1.68	-0.15	-0.07	-1.06
24559	-4.43	10.53	5.71	-0.11	-0.07	-1.09
24579	-5.52	17.14	3.34	-0.05	-0.03	-1.15
24598	-8.61	30.96	-2.23	-0.05	-0.06	-1.15
24617	-7.83	41.96	-4.53	-0.10	-0.08	-1.15
24637	-4.73	45.24	-6.52	-0.14	-0.07	-1.15
24656	-2.66	40.12	-8.99	-0.20	-0.03	-1.17
24675	-4.41	28.81	-5.51	-0.20	0.00	-1.21
24694	-8.06	18.42	0.24	-0.14	0.01	-1.23
24714	-9.57	14.42	2.41	-0.09	-0.01	-1.25
24732	-10.62	8.35	6.93	-0.06	-0.03	-1.26
24751	-10.54	4.32	12.24	-0.09	-0.05	-1.25
24770	-8.79	-5.20	11.47	-0.14	-0.05	-1.27
24790	-6.84	-15.99	6.36	-0.08	-0.06	-1.30
24810	-2.47	-14.48	3.34	0.02	-0.11	-1.32
24831	4.39	-3.89	0.46	0.01	-0.04	-1.34
24849	3.95	5.11	-1.43	-0.05	0.02	-1.36
24869	0.50	10.01	-1.68	-0.08	-0.02	-1.38
24889	1.19	16.94	-0.96	-0.09	-0.05	-1.39
24909	2.99	22.78	-1.31	-0.14	-0.04	-1.40
24928	2.84	21.80	-1.40	-0.21	-0.02	-1.39
24947	2.14	17.20	-1.48	-0.25	-0.02	-1.39
24967	0.70	1.62	-0.99	-0.27	-0.01	-1.40
24986	-2.67	-12.82	4.68	-0.21	0.00	-1.44
25006	-6.27	-19.94	11.95	-0.15	-0.02	-1.48
25026	-5.11	-19.91	9.96	-0.12	-0.02	-1.52
25046	-3.78	-14.86	2.04	-0.09	0.03	-1.55
25065	-7.61	-6.15	-3.71	-0.09	0.05	-1.55
25084	-12.10	7.05	-4.90	-0.06	0.03	-1.56
25105	-10.86	25.33	-8.32	-0.04	0.03	-1.55
25124	-8.70	43.00	-8.79	-0.06	0.03	-1.50
25144	-5.81	53.24	-1.11	-0.10	-0.01	-1.42
25163	-1.13	54.95	9.00	-0.12	-0.02	-1.36
25182	3.43	48.77	11.26	-0.15	-0.04	-1.30
25203	7.58	34.50	3.72	-0.17	-0.05	-1.23
25221	9.32	24.81	-1.92	-0.16	-0.04	-1.20
25241	10.93	5.46	-9.92	-0.09	-0.04	-1.17
25260	9.80	-8.45	-7.72	-0.07	-0.03	-1.16
25279	5.02	-23.22	-1.89	-0.09	-0.01	-1.12
25300	-1.01	-39.35	-1.65	-0.04	-0.02	-1.10
25320	-4.53	-47.10	2.35	0.03	-0.03	-1.10
25340	-6.41	-43.15	6.38	0.08	-0.03	-1.09
25359	-4.99	-34.67	2.33	0.06	-0.05	-1.07
25378	2.18	-26.81	-6.53	0.07	-0.11	-1.07
25399	13.02	-12.73	-8.93	0.07	-0.08	-1.10
25417	16.65	2.53	-6.04	-0.02	-0.01	-1.08
25437	13.18	9.52	-2.67	-0.08	-0.00	-1.06
25456	10.82	10.89	-2.58	-0.05	-0.05	-1.07
25476	11.60	12.47	-1.89	-0.05	-0.01	-1.09
25496	10.38	15.81	0.50	-0.06	0.01	-1.09
25514	6.71	15.43	2.12	-0.09	-0.01	-1.11
25533	5.74	10.41	-1.46	-0.09	-0.03	-1.14
25552	6.76	3.71	-4.90	-0.08	-0.02	-1.18
25572	5.22	-3.08	-1.71	-0.08	0.01	-1.20
25591	-0.14	-9.52	3.57	-0.04	0.03	-1.22
25611	-5.55	-13.08	4.46	0.01	0.02	-1.22
25629	-8.15	-13.43	2.11	0.02	-0.00	-1.21
25648	-9.28	-12.88	0.58	0.02	-0.00	-1.19
25668	-13.78	-9.38	-2.37	0.03	0.02	-1.16
25687	-18.43	-2.49	-6.52	0.04	-0.02	-1.11
25707	-16.14	5.77	-12.53	0.03	-0.05	-1.06
25726	-10.03	11.55	-16.02	0.00	-0.03	-1.00
25746	-6.91	14.54	-15.44	0.00	-0.01	-0.91
25765	-6.55	16.27	-13.05	0.01	-0.01	-0.84
25784	-5.05	17.29	-12.50	0.00	-0.05	-0.76
25805	-3.30	15.20	-10.96	-0.02	-0.03	-0.66
25825	-4.62	9.22	-8.15	-0.04	-0.02	-0.56
25844	-8.44	1.48	-5.29	-0.02	-0.01	-0.47
25864	-12.36	-6.15	-5.63	-0.02	-0.01	-0.42
25884	-15.32	-15.21	-7.23	-0.02	-0.02	-0.39
25905	-16.28	-24.75	-8.13	-0.03	-0.03	-0.39
25925	-15.93	-34.91	-8.85	-0.04	-0.03	-0.43
25946	-15.49	-43.58	-9.11	-0.03	-0.03	-0.50
25966	-13.60	-49.21	-8.91	-0.07	-0.05	-0.59
25986	-9.40	-55.76	-7.90	-0.13	-0.06	-0.69
26008	-5.04	-61.02	-5.37	-0.13	-0.07	-0.79
26027	2.87	-59.56	-2.01	-0.12	-0.07	-0.86
26048	11.81	-49.96	2.40	-0.13	-0.05	-0.93
26067	17.76	-38.12	9.43	-0.19	-0.05	-0.97
26087	22.57	-30.11	13.17	-0.26	-0.06	-0.99
26106	25.31	-27.63	12.22	-0.27	-0.07	-1.00
26126	30.24	-23.13	6.07	-0.28	-0.03	-1.00
26145	31.59	-17.65	1.51	-0.30	-0.02	-0.99
26164	28.84	-14.53	1.91	-0.33	-0.02	-0.99
26184	24.48	-12.47	2.98	-0.31	-0.01	-0.99
26203	19.03	-6.85	2.84	-0.29	-0.00	-1.00
26224	12.16	1.95	3.51	-0.28	-0.00	-1.01
26242	5.19	11.63	5.20	-0.27	-0.01	-1.02
26262	-0.17	20.74	4.15	-0.25	-0.03	-1.04
26280	-2.37	28.15	1.02	-0.26	-0.04	-1.06
26299	-3.42	30.04	-0.08	-0.27	-0.04	-1.06
26319	-5.14	30.23	-1.04	-0.27	-0.05	-1.06
26339	-5.66	25.45	-3.28	-0.27	-0.05	-1.05
26359	-4.21	16.75	-4.46	-0.26	-0.06	-1.04
26378	-1.66	7.03	-1.71	-0.24	-0.07	-1.03
26398	2.00	-2.35	4.03	-0.24	-0.08	-1.02
26419	6.18	-10.70	7.66	-0.23	-0.07	-1.02
26438	9.98	-16.72	7.89	-0.23	-0.07	-1.03
26457	11.70	-18.62	7.02	-0.22	-0.06	-1.01
26477	11.23	-17.29	6.21	-0.23	-0.07	-0.99
26496	10.51	-12.83	4.56	-0.22	-0.07	-0.94
26516	9.80	-4.67	2.11	-0.21	-0.06	-0.88
26535	7.86	4.73	0.18	-0.19	-0.05	-0.80
26555	6.87	9.32	-0.90	-0.16	-0.05	-0.71
26574	4.03	19.36	-5.16	-0.14	-0.06	-0.61
26593	2.99	20.71	-7.39	-0.14	-0.05	-0.56
26613	0.82	18.22	-10.53	-0.17	-0.05	-0.49
26633	-1.36	8.67	-11.92	-0.19	-0.04	-0.44
26653	-4.10	-3.80	-10.73	-0.15	-0.04	-0.42
26673	-6.27	-13.50	-5.36	-0.10	-0.05	-0.41
26694	-8.22	-18.80	-0.53	-0.07	-0.04	-0.43
26714	-10.83	-19.68	1.82	-0.06	-0.04	-0.46
26734	-12.28	-17.03	1.25	-0.05	-0.05	-0.51
26754	-11.80	-11.22	-3.89	-0.06	-0.07	-0.56
26774	-8.42	-4.46	-9.00	-0.09	-0.09	-0.63
26795	-4.99	0.20	-10.70	-0.13	-0.07	-0.70
26814	-2.67	4.53	-7.69	-0.15	-0.03	-0.77
26835	-6.04	9.02	-2.78	-0.14	0.03	-0.85
26854	-13.29	13.37	4.46	-0.18	0.02	-0.91
26874	-18.11	14.11	12.28	-0.18	-0.03	-0.97
26893	-16.92	14.88	18.16	-0.14	-0.06	-1.02
26912	-13.63	18.78	17.56	-0.11	-0.06	-1.06
26932	-10.27	25.99	10.13	-0.08	-0.06	-1.09
26951	-5.62	36.35	-1.45	-0.05	-0.05	-1.12
26972	-1.82	48.16	-10.77	-0.03	-0.03	-1.16
26991	-1.85	59.48	-10.18	-0.02	0.01	-1.17
27011	-5.19	66.22	-3.75	-0.08	0.02	-1.17
27030	-6.64	65.58	-0.53	-0.11	0.02	-1.18
27051	-9.34	55.69	6.97	-0.16	0.01	-1.21
27069	-10.85	41.47	14.92	-0.09	0.00	-1.24
27088	-10.27	31.66	19.50	-0.03	-0.03	-1.25
27108	-5.84	24.20	19.32	-0.01	-0.05	-1.28
27127	-1.14	16.69	17.40	-0.01	-0.04	-1.33
27147	2.14	11.99	12.37	0.04	-0.01	-1.35
27165	3.98	13.11	4.93	0.12	-0.01	-1.36
27183	3.75	15.70	2.06	0.10	0.01	-1.37
27202	2.04	19.29	-2.15	0.07	0.02	-1.37
27220	-0.21	18.69	-5.19	0.05	0.02	-1.36
27240	0.70	17.58	-4.39	0.06	-0.02	-1.36
27258	5.55	17.36	-0.72	0.00	-0.02	-1.37
27277	9.89	10.85	1.53	-0.04	-0.00	-1.37
27296	10.62	4.73	4.15	0.02	0.01	-1.38
27314	9.60	3.42	7.25	0.01	0.01	-1.38
27332	6.29	-0.85	12.01	-0.05	0.00	-1.38
27351	3.60	-10.48	10.73	-0.08	0.03	-1.38
27370	-1.57	-20.83	8.83	-0.09	0.04	-1.41
27390	-9.37	-29.01	8.80	-0.08	0.04	-1.44
27409	-13.37	-31.62	4.97	-0.03	0.02	-1.47
27429	-12.16	-26.93	-3.10	0.02	0.02	-1.52
27448	-8.10	-15.20	-9.22	0.06	0.02	-1.55
27468	-2.33	2.35	-7.08	0.06	0.02	-1.54
27487	0.81	11.37	-4.35	0.04	0.03	-1.54
27506	5.08	26.20	2.64	0.00	0.01	-1.51
27523	6.90	34.79	12.86	-0.01	0.01	-1.47
27541	5.25	37.73	16.69	-0.02	0.03	-1.41
27561	0.24	35.06	9.17	-0.03	0.05	-1.37
27579	-3.40	31.80	2.66	-0.04	0.02	-1.31
27599	-9.54	22.19	-6.52	-0.04	-0.00	-1.28
27618	-12.18	10.85	-7.72	-0.02	-0.04	-1.24
27637	-10.28	-0.05	-6.41	-0.02	-0.06	-1.21
27659	-5.29	-11.00	-4.78	-0.01	-0.07	-1.18
27679	0.24	-20.08	-0.49	0.03	-0.05	-1.14
27699	2.73	-25.36	1.40	0.04	-0.01	-1.13
27718	2.00	-28.35	1.69	0.04	-0.01	-1.12
27737	1.33	-28.08	3.40	0.05	-0.00	-1.09
27756	0.23	-25.12	3.85	0.07	-0.01	-1.08
27774	1.77	-17.81	-0.43	0.10	-0.04	-1.07
27794	5.84	-7.95	-5.60	0.06	0.00	-1.04
27812	7.08	-4.38	-7.08	0.04	0.03	-1.03
27831	7.64	-1.17	-6.23	0.01	0.01	-1.04
27849	9.28	0.08	0.63	0.01	0.01	-1.06
27869	9.63	-0.34	5.84	-0.04	0.04	-1.07
27887	7.60	-4.43	7.45	-0.04	0.04	-1.07
27906	7.68	-8.91	7.31	-0.03	0.00	-1.10
27925	8.26	-11.25	5.97	-0.04	0.00	-1.16
27944	8.71	-15.06	2.73	-0.06	0.02	-1.17
27963	4.84	-19.49	0.82	-0.05	0.04	-1.18
27982	0.26	-20.20	-2.88	0.04	0.04	-1.21
28002	-2.43	-10.47	-5.46	0.12	0.03	-1.24
28021	-4.04	5.16	-5.65	0.09	0.03	-1.23
28040	-5.23	14.54	-4.79	0.02	0.03	-1.18
28059	-8.06	15.85	-3.28	-0.02	0.06	-1.13
28079	-10.67	14.45	-2.37	-0.03	0.05	-1.08
28098	-16.01	10.16	-1.85	-0.00	0.03	-1.02
28117	-19.32	6.30	-2.73	0.01	0.03	-0.99
28136	-21.71	2.26	-2.49	0.02	0.03	-0.93
28155	-23.36	-3.37	-1.63	0.01	0.02	-0.86
28176	-22.42	-10.59	-3.37	0.01	-0.02	-0.78
28195	-19.09	-18.43	-8.91	-0.01	-0.03	-0.69
28215	-16.11	-25.74	-15.32	0.00	-0.02	-0.62
28235	-15.56	-32.68	-20.36	-0.00	-0.01	-0.56
28255	-14.33	-38.56	-21.79	0.01	-0.03	-0.50
28277	-9.54	-41.26	-21.29	0.06	-0.08	-0.44
28296	1.79	-38.35	-21.76	0.10	-0.09	-0.41
28316	13.63	-31.39	-25.63	0.13	-0.06	-0.38
28335	22.17	-20.94	-26.23	0.15	-0.04	-0.39
28354	26.93	-4.70	-20.36	0.21	-0.02	-0.41
28375	29.94	16.36	-19.20	0.13	0.02	-0.46